File: data/data_modification/Test_0611.csv
Molar ratio (Zn:Cu),Promoter 1 ,Promoter 1 ratio (Promoter 1:Cu),Promoter 2,Promoter 2 ratio (Promoter 2:Cu),Catalyst surface area (m2/g) (LN scale),Type of sysnthesis procedure,Calcination temperature (°C),Calcination time (h),Temperature (°C),Pressure (bar),H2/CO2 ratio (-),GHSV (mL/g.h) (LN scale),CO selectivity (%),Methanol selectivity (%),STY_CH3OH (g/kg·h) (LN scale),CO2 conversion efficiency (%),,,,DOI,Name,Year
2,Null,,Null,,3.10459,Co-precipitation,350,4,200,30,3,10.0858,39.9504,60.0496,4.68006,2.12687,,,,10.1016/j.apcatb.2022.122233,Boosting CO2 hydrogenation to methanol by adding trace amount of Au into Cu/ZnO catalysts,2023
2,Null,,Null,,3.10459,Co-precipitation,350,4,225,30,3,10.0858,46.8983,53.1017,5.07731,3.50746,,,,10.1016/j.apcatb.2022.122233,,2023
2,Null,,Null,,3.10459,Co-precipitation,350,4,250,30,3,10.0858,65.2605,34.7395,5.18869,6.00746,,,,10.1016/j.apcatb.2022.122233,,2023
2,Null,,Null,,3.10459,Co-precipitation,350,4,275,30,3,10.0858,78.1638,21.8362,5.28475,10.0224,,,,10.1016/j.apcatb.2022.122233,,2023
2,Au,0.001,Null,,3.46261,Co-precipitation,350,4,200,30,3,10.0858,23.0769,76.9231,5.0408,2.31343,,,,10.1016/j.apcatb.2022.122233,,2023
2,Au,0.001,Null,,3.46261,Co-precipitation,350,4,225,30,3,10.0858,34.4913,65.5087,5.45294,4.1791,,,,10.1016/j.apcatb.2022.122233,,2023
2,Au,0.001,Null,,3.46261,Co-precipitation,350,4,250,30,3,10.0858,48.3871,51.6129,5.62393,6.23134,,,,10.1016/j.apcatb.2022.122233,,2023
2,Au,0.001,Null,,3.46261,Co-precipitation,350,4,275,30,3,10.0858,70.2233,29.7767,5.68155,11.6045,,,,10.1016/j.apcatb.2022.122233,,2023
2,Au,0.005,Null,,3.46574,Co-precipitation,350,4,200,30,3,10.0858,18.6104,81.3896,5.19782,2.54325,,,,10.1016/j.apcatb.2022.122233,,2023
2,Au,0.005,Null,,3.46574,Co-precipitation,350,4,225,30,3,10.0858,30.7692,69.2308,5.57532,4.37872,,,,10.1016/j.apcatb.2022.122233,,2023
2,Au,0.005,Null,,3.46574,Co-precipitation,350,4,250,30,3,10.0858,42.1836,57.8164,5.7518,6.30551,,,,10.1016/j.apcatb.2022.122233,,2023
2,Au,0.005,Null,,3.46574,Co-precipitation,350,4,275,30,3,10.0858,69.0722,30.9278,5.80762,9.77035,,,,10.1016/j.apcatb.2022.122233,,2023
2,Au,0.02,Null,,3.24259,Co-precipitation,350,4,200,30,3,10.0858,22.0844,77.9156,4.98621,2.16965,,,,10.1016/j.apcatb.2022.122233,,2023
2,Au,0.02,Null,,3.24259,Co-precipitation,350,4,225,30,3,10.0858,32.2581,67.7419,5.43519,3.91121,,,,10.1016/j.apcatb.2022.122233,,2023
2,Au,0.02,Null,,3.24259,Co-precipitation,350,4,250,30,3,10.0858,43.9206,56.0794,5.67028,5.97653,,,,10.1016/j.apcatb.2022.122233,,2023
2,Au,0.02,Null,,3.24259,Co-precipitation,350,4,275,30,3,10.0858,68.2382,31.7618,5.69268,10.0269,,,,10.1016/j.apcatb.2022.122233,,2023
2,Au,0.05,Null,,3.22287,Co-precipitation,350,4,200,30,3,10.0858,31.7618,68.2382,4.5925,1.65518,,,,10.1016/j.apcatb.2022.122233,,2023
2,Au,0.05,Null,,3.22287,Co-precipitation,350,4,225,30,3,10.0858,41.4392,58.5608,5.23787,3.72311,,,,10.1016/j.apcatb.2022.122233,,2023
2,Au,0.05,Null,,3.22287,Co-precipitation,350,4,250,30,3,10.0858,50.3722,49.6278,5.5275,5.83591,,,,10.1016/j.apcatb.2022.122233,,2023
2,Au,0.05,Null,,3.22287,Co-precipitation,350,4,275,30,3,10.0858,71.7122,28.2878,5.62393,9.41265,,,,10.1016/j.apcatb.2022.122233,,2023
0.4587,Al,2.2568,Zr,0.0413,4.23411,Co-precipitation,500,5,250,50,3.04,8.29405,38.5,61.5,5.39226,25.9,,,,10.1016/j.jcou.2016.01.005,Catalytic performance of spray-dried Cu/ZnO/Al2O3/ZrO2 catalysts for slurry methanol synthesis from CO2 hydrogenation,2016
0.4566,Al,2.8128,Zr,0.0411,4.31749,Co-precipitation,500,5,250,50,3.04,8.29405,39.4,60.6,5.35044,25.2,,,,10.1016/j.jcou.2016.01.005,,2016
0.4525,Al,3.3304,Zr,0.0407,4.35671,Co-precipitation,500,5,250,50,3.04,8.29405,41.3,58.7,5.29882,24.7,,,,10.1016/j.jcou.2016.01.005,,2016
0.4484,Al,4.016,Zr,0.0404,4.40672,Co-precipitation,500,5,250,50,3.04,8.29405,42.3,57.7,5.24069,23.7,,,,10.1016/j.jcou.2016.01.005,,2016
0.4525,Al,4.8868,Zr,0.0407,4.47734,Co-precipitation,500,5,250,50,3.04,8.29405,44.8,55.2,5.13167,22.2,,,,10.1016/j.jcou.2016.01.005,,2016
0.4587,Al,2.2568,Zr,0.0413,4.23411,Co-precipitation,500,5,220,30,3.04,8.29405,38.9,61.1,3.60005,8.5,,,,10.1016/j.jcou.2016.01.005,,2016
0.4566,Al,2.8128,Zr,0.0411,4.31749,Co-precipitation,500,5,220,30,3.04,8.29405,36.5,63.5,3.95891,11.8,,,,10.1016/j.jcou.2016.01.005,,2016
0.4525,Al,3.3304,Zr,0.0407,4.35671,Co-precipitation,500,5,220,30,3.04,8.29405,38.3,61.7,4.07073,13.6,,,,10.1016/j.jcou.2016.01.005,,2016
0.4484,Al,4.016,Zr,0.0404,4.40672,Co-precipitation,500,5,220,30,3.04,8.29405,41.8,58.2,3.93183,12.5,,,,10.1016/j.jcou.2016.01.005,,2016
0.4525,Al,4.8868,Zr,0.0407,4.47734,Co-precipitation,500,5,220,30,3.04,8.29405,46.2,53.8,3.49043,8.6,,,,10.1016/j.jcou.2016.01.005,,2016
0.7319,Zr,0.6616,Null,,5.09375,Co-precipitation,350,2,200,20,3,9.65503,30.043,65.3151,4.67187,2.90644,,,,10.1016/j.cej.2017.02.010,CO2 hydrogenation to methanol over CuO–ZnO–ZrO2–SiO2 catalysts: Effects of SiO2 contents,2017
0.7319,Zr,0.6616,Null,,5.09375,Co-precipitation,350,2,220,20,3,9.65503,52.185,47.7808,5.07568,5.97586,,,,10.1016/j.cej.2017.02.010,,2017
0.7319,Zr,0.6616,Null,,5.09375,Co-precipitation,350,2,240,20,3,9.65503,68.1634,32,5.27087,10.8581,,,,10.1016/j.cej.2017.02.010,,2017
0.7319,Zr,0.6616,Null,,5.09375,Co-precipitation,350,2,260,20,3,9.65503,86.7246,14.4658,4.77139,14.52731,,,,10.1016/j.cej.2017.02.010,,2017
0.7319,Zr,0.6616,Null,,5.09375,Co-precipitation,350,2,280,20,3,9.65503,91.5842,9.20548,4.59071,19.02298,,,,10.1016/j.cej.2017.02.010,,2017
0.7,Si,0.0001764,Zr,0.6545,5.16479,Co-precipitation,350,2,200,20,3,9.65503,25.2556,69.9178,5.00062,3.78665,,,,10.1016/j.cej.2017.02.010,,2017
0.7,Si,0.0001764,Zr,0.6545,5.16479,Co-precipitation,350,2,220,20,3,9.65503,48.7349,50.411,5.2735,6.91083,,,,10.1016/j.cej.2017.02.010,,2017
0.7,Si,0.0001764,Zr,0.6545,5.16479,Co-precipitation,350,2,240,20,3,9.65503,65.2275,34.411,5.42537,11.79304,,,,10.1016/j.cej.2017.02.010,,2017
0.7,Si,0.0001764,Zr,0.6545,5.16479,Co-precipitation,350,2,260,20,3,9.65503,80.587,19.2877,5.18728,16.56247,,,,10.1016/j.cej.2017.02.010,,2017
0.7,Si,0.0001764,Zr,0.6545,5.16479,Co-precipitation,350,2,280,20,3,9.65503,91.5616,9.20548,4.61891,19.57262,,,,10.1016/j.cej.2017.02.010,,2017
0.7384,Si,0.0004577,Zr,0.6528,5.36598,Co-precipitation,350,2,200,20,3,9.65503,29.5098,70.5753,5.11925,4.22707,,,,10.1016/j.cej.2017.02.010,,2017
0.7384,Si,0.0004577,Zr,0.6528,5.36598,Co-precipitation,350,2,220,20,3,9.65503,45.3621,54.5753,5.60341,8.89127,,,,10.1016/j.cej.2017.02.010,,2017
0.7384,Si,0.0004577,Zr,0.6528,5.36598,Co-precipitation,350,2,240,20,3,9.65503,62.8459,37.0411,5.65728,13.82783,,,,10.1016/j.cej.2017.02.010,,2017
0.7384,Si,0.0004577,Zr,0.6528,5.36598,Co-precipitation,350,2,260,20,3,9.65503,76.2618,23.4521,5.4612,17.93799,,,,10.1016/j.cej.2017.02.010,,2017
0.7384,Si,0.0004577,Zr,0.6528,5.36598,Co-precipitation,350,2,280,20,3,9.65503,90.122,10.5205,4.7623,19.793,,,,10.1016/j.cej.2017.02.010,,2017
0.6948,Si,0.00065172,Zr,0.6782,5.23111,Co-precipitation,350,2,200,20,3,9.65503,36.6317,67.0685,4.82029,3.291741,,,,10.1016/j.cej.2017.02.010,,2017
0.6948,Si,0.00065172,Zr,0.6782,5.23111,Co-precipitation,350,2,220,20,3,9.65503,48.5655,50.6301,5.39713,7.79109,,,,10.1016/j.cej.2017.02.010,,2017
0.6948,Si,0.00065172,Zr,0.6782,5.23111,Co-precipitation,350,2,240,20,3,9.65503,68.2497,33.3151,5.46472,12.67207,,,,10.1016/j.cej.2017.02.010,,2017
0.6948,Si,0.00065172,Zr,0.6782,5.23111,Co-precipitation,350,2,260,20,3,9.65503,79.0783,20.8219,5.33355,17.77233,,,,10.1016/j.cej.2017.02.010,,2017
0.6948,Si,0.00065172,Zr,0.6782,5.23111,Co-precipitation,350,2,280,20,3,9.65503,89.7078,11.3973,4.88483,20.67233,,,,10.1016/j.cej.2017.02.010,,2017
0.681,Si,0.001128,Zr,0.6473,4.97673,Co-precipitation,350,2,200,20,3,9.65503,38.6289,65.5342,4.67389,2.90627,,,,10.1016/j.cej.2017.02.010,,2017
0.681,Si,0.001128,Zr,0.6473,4.97673,Co-precipitation,350,2,220,20,3,9.65503,58.3892,46.6849,5.08849,6.19543,,,,10.1016/j.cej.2017.02.010,,2017
0.681,Si,0.001128,Zr,0.6473,4.97673,Co-precipitation,350,2,240,20,3,9.65503,72.8498,30.2466,5.24449,11.18697,,,,10.1016/j.cej.2017.02.010,,2017
0.681,Si,0.001128,Zr,0.6473,4.97673,Co-precipitation,350,2,260,20,3,9.65503,82.8152,20.1644,5.27029,17.22143,,,,10.1016/j.cej.2017.02.010,,2017
0.681,Si,0.001128,Zr,0.6473,4.97673,Co-precipitation,350,2,280,20,3,9.65503,91.4535,10.3014,4.7632,20.23226,,,,10.1016/j.cej.2017.02.010,,2017
0.7069,Si,0.0021187,Zr,0.6416,4.80402,Co-precipitation,350,2,200,20,3,9.65503,41.7498,63.3425,4.36086,2.191054,,,,10.1016/j.cej.2017.02.010,,2017
0.7069,Si,0.0021187,Zr,0.6416,4.80402,Co-precipitation,350,2,220,20,3,9.65503,65.5524,45.3699,4.81101,4.8207,,,,10.1016/j.cej.2017.02.010,,2017
0.7069,Si,0.0021187,Zr,0.6416,4.80402,Co-precipitation,350,2,240,20,3,9.65503,70.1136,28.9315,4.94566,8.65836,,,,10.1016/j.cej.2017.02.010,,2017
0.7069,Si,0.0021187,Zr,0.6416,4.80402,Co-precipitation,350,2,260,20,3,9.65503,88.6061,12.274,4.55075,13.70263,,,,10.1016/j.cej.2017.02.010,,2017
0.7069,Si,0.0021187,Zr,0.6416,4.80402,Co-precipitation,350,2,280,20,3,9.65503,92.8371,7.0137,4.28712,18.36316,,,,10.1016/j.cej.2017.02.010,,2017
1,Null,,Null,,2.27213,Mechanical grinding,350,3,250,30,2.88,7.67786,100,0,0,0.8,,,,10.1007/s11814-017-0278-8,CO2 hydrogenation to methanol over Cu/ZnO catalysts synthesized via a facile solid-phase grinding process using oxalic acid,2018
1,(COOH)2,0.25,Null,,2.69463,Mechanical grinding,350,3,250,30,2.88,7.67786,100,0,0,1.8,,,,10.1007/s11814-017-0278-8,,2018
1,(COOH)2,0.5,Null,,3.16548,Mechanical grinding,350,3,250,30,2.88,7.67786,92.6,7.4,1.69611,7.8,,,,10.1007/s11814-017-0278-8,,2018
1,(COOH)2,1,Null,,3.2581,Mechanical grinding,350,3,250,30,2.88,7.67786,19.4,80.6,5.09548,26.1,,,,10.1007/s11814-017-0278-8,,2018
1,(COOH)2,1.5,Null,,3.47507,Mechanical grinding,350,3,250,30,2.88,7.67786,16.3,83.7,5.15186,26.6,,,,10.1007/s11814-017-0278-8,,2018
1,(COOH)2,1.75,Null,,3.64284,Mechanical grinding,350,3,250,30,2.88,7.67786,16.4,83.6,5.24341,29.2,,,,10.1007/s11814-017-0278-8,,2018
1,(COOH)2,2,Null,,3.54674,Mechanical grinding,350,3,250,30,2.88,7.67786,18.9,81.1,5.17856,28.2,,,,10.1007/s11814-017-0278-8,,2018
1,(COOH)2,2.5,Null,,3.47197,Mechanical grinding,350,3,250,30,2.88,7.67786,18.3,81.7,5.2091,28,,,,10.1007/s11814-017-0278-8,,2018
1,(COOH)2,4,Null,,3.39451,Mechanical grinding,350,3,250,30,2.88,7.67786,19.3,80.7,5.18614,27.7,,,,10.1007/s11814-017-0278-8,,2018
0.7901,Null,,Null,,3.49256,Mechanical grinding,350,3,250,30,2.88,7.67786,23.14,76.86,5.13191,27.54,,,,10.1007/s11814-017-0278-8,,2018
0.8037,Null,,Null,,3.55934,Mechanical grinding,300,3,250,30,2.88,7.67786,21.35,77.22,5.14088,27.66,,,,10.1007/s11814-017-0278-8,,2018
0.8037,Null,,Null,,3.58712,Mechanical grinding,330,3,250,30,2.88,7.67786,22.54,81.32,5.19447,27.72,,,,10.1007/s11814-017-0278-8,,2018
0.8037,Null,,Null,,3.64257,Mechanical grinding,350,3,250,30,2.88,7.67786,24.42,83.56,5.27392,29.22,,,,10.1007/s11814-017-0278-8,,2018
0.8037,Null,,Null,,3.52076,Mechanical grinding,400,3,250,30,2.88,7.67786,23.15,80.5,5.22102,28.76,,,,10.1007/s11814-017-0278-8,,2018
0.8037,Null,,Null,,3.64257,Mechanical grinding,350,1,250,30,2.88,7.67786,20.26,79.74,5.18637,28.04,,,,10.1007/s11814-017-0278-9,,2018
0.8037,Null,,Null,,3.64257,Mechanical grinding,350,2,250,30,2.88,7.67786,18.32,81.68,5.22995,28.6,,,,10.1007/s11814-017-0278-10,,2018
0.8037,Null,,Null,,3.64257,Mechanical grinding,350,4,250,30,2.88,7.67786,20.54,79.46,5.20393,28.64,,,,10.1007/s11814-017-0278-11,,2018
1,HCOOH,6,Null,,3.15017,Mechanical grinding,280,3,250,30,2.88,7.67786,17.66,82.34,5.33151,31.42,,,,10.1002/slct.201900860,CO2 Hydrogenation to Methanol via In-situ Reduced Cu/ZnO Catalyst Prepared by Formic acid Assisted Grinding,2019
1,HCOOH,6,Null,,3.29213,Mechanical grinding,330,3,250,30,2.88,7.67786,15.7,84.3,5.3904,32.56,,,,10.1002/slct.201900860,,2019
1,HCOOH,6,Null,,3.27865,Mechanical grinding,350,3,250,30,2.88,7.67786,15.72,84.28,5.38342,32.34,,,,10.1002/slct.201900860,,2019
1,HCOOH,6,Null,,3.29473,Mechanical grinding,380,3,250,30,2.88,7.67786,19.7,80.3,5.22613,28.98,,,,10.1002/slct.201900860,,2019
1,HCOOH,6,Null,,3.26423,Mechanical grinding,350,1,250,30,2.88,7.67786,21.1,78.9,5.25064,30.23,,,,10.1002/slct.201900860,,2019
1,HCOOH,6,Null,,3.36107,Mechanical grinding,350,2,250,30,2.88,7.67786,20.77,79.23,5.24752,30.01,,,,10.1002/slct.201900860,,2019
1,HCOOH,6,Null,,3.20923,Mechanical grinding,350,4,250,30,2.88,7.67786,23.39,76.61,5.24732,31.03,,,,10.1002/slct.201900860,,2019
1,HCOOH,6,Null,,3.29213,Mechanical grinding,350,3,300,30,2.88,7.67786,16.7,83.3,5.37852,32.56,,,,10.1002/slct.201900860,,2019
0,Al,0.015456,Null,,3.76515,MOF-derived,400,,220,30,2,8.69951,35.82,64.18,3.53194,1.81,,,,10.1016/j.fuel.2023.128647,Combined hydrogenation of CO2 and CO to methanol using Aerosol-Assisted Metal-Organic Framework-Derived hybrid catalysts,2023
0.488,Al,0.023176,Null,,3.74526,MOF-derived,400,,220,30,2,8.69951,16.05,83.95,4.15642,2.62,,,,10.1016/j.fuel.2023.128647,,2023
1.004,Al,0.031056,Null,,3.72858,MOF-derived,400,,220,30,2,8.69951,18.33,81.67,3.95767,2.2,,,,10.1016/j.fuel.2023.128647,,2023
2.012,Al,0.04764,Null,,3.71357,MOF-derived,400,,220,30,2,8.69951,19.71,80.29,3.81274,1.93,,,,10.1016/j.fuel.2023.128647,,2023
0.9685,Null,,Null,,1.51293,MOF-derived,400,,220,30,2,8.69951,16.13,83.87,3.21739,1,,,,10.1016/j.fuel.2023.128647,,2023
0.4925,Al,0.023244,Null,,3.80577,MOF-derived,400,,220,30,2,8.69951,15.57,84.43,4.24041,2.837,,,,10.1016/j.fuel.2023.128647,,2023
1.0325,Null,,Null,,3.16548,Hydrothermal,60,12,240,30,3,9.39266,28.5,71.5,5.9162,11.9,,,,10.1039/c9ra00658c,Cylindrical shaped ZnO combined Cu catalysts for the hydrogenation of CO2 to methanol,2019
0.5083,Null,,Null,,3.56953,Hydrothermal,60,12,240,30,3,9.39266,35.3,64.7,6.21661,17.8,,,,10.1039/c9ra00658c,,2019
0.3441,Null,,Null,,3.26957,Hydrothermal,60,12,240,30,3,9.39266,45.8,54.2,5.70711,12.6,,,,10.1039/c9ra00658c,,2019
0.2563,Null,,Null,,3.054,Hydrothermal,60,12,240,30,3,9.39266,51.7,48.3,5.1985,8.7,,,,10.1039/c9ra00658c,,2019
0.4948,Null,,Null,,3.65842,Hydrothermal,60,12,240,30,3,9.39266,50.1,49.9,5.63835,13.2,,,,10.1039/c9ra00658c,,2019
0.11,Null,,Null,,1.93152,Decomposition-precipitation,400,3,220,30,3,9.39266,11.3806,88.6194,4.2038,1.71963,,,,10.1039/d1cy01836a,Dependence of copper particle size and interface on methanol and CO formation in CO2 hydrogenation over Cu@ZnO catalysts,2022
0.11,Null,,Null,,1.93152,Decomposition-precipitation,400,3,240,30,3,9.39266,23.3209,76.6791,4.30481,2.24299,,,,10.1039/d1cy01836a,,2022
0.11,Null,,Null,,1.93152,Decomposition-precipitation,400,3,260,30,3,9.39266,34.7015,65.2985,4.46978,3.14019,,,,10.1039/d1cy01836a,,2022
0.11,Null,,Null,,1.93152,Decomposition-precipitation,400,3,280,30,3,9.39266,50.7463,49.2537,4.49128,4.2243,,,,10.1039/d1cy01836a,,2022
0.56,Null,,Null,,2.82731,Decomposition-precipitation,400,3,220,30,3,9.39266,19.7761,80.2239,4.5071,2.65421,,,,10.1039/d1cy01836a,,2022
0.56,Null,,Null,,2.82731,Decomposition-precipitation,400,3,240,30,3,9.39266,39.5522,60.4478,4.66639,4.14953,,,,10.1039/d1cy01836a,,2022
0.56,Null,,Null,,2.82731,Decomposition-precipitation,400,3,260,30,3,9.39266,50.5597,49.4403,4.96504,6.84112,,,,10.1039/d1cy01836a,,2022
0.56,Null,,Null,,2.82731,Decomposition-precipitation,400,3,280,30,3,9.39266,62.6866,37.3134,5.16806,11.1776,,,,10.1039/d1cy01836a,,2022
1.11,Null,,Null,,3.14415,Decomposition-precipitation,400,3,220,30,3,9.39266,28.9179,71.0821,4.45886,1.71963,,,,10.1039/d1cy01836a,,2022
1.11,Null,,Null,,3.14415,Decomposition-precipitation,400,3,240,30,3,9.39266,44.2164,55.7836,4.98146,2.24299,,,,10.1039/d1cy01836a,,2022
1.11,Null,,Null,,3.14415,Decomposition-precipitation,400,3,260,30,3,9.39266,58.3955,41.6045,5.21296,3.14019,,,,10.1039/d1cy01836a,,2022
1.11,Null,,Null,,3.14415,Decomposition-precipitation,400,3,280,30,3,9.39266,67.5373,32.4627,5.41147,4.2243,,,,10.1039/d1cy01836a,,2022
0.04,Al,0.6132,Null,,3.62966,Co-precipitation,400,3,190,30,3,9.21034,16.9435,83.0565,5.05689,5.26246,,,,10.1039/d2nj05903g,Design of Cu/ZnO/Al2O3 catalysts with a rich Cu–ZnO interface for enhanced CO2 hydrogenation to methanol using zinc-malachite as the precursor,2023
0.04,Al,0.6132,Null,,3.62966,Co-precipitation,400,3,210,30,3,9.21034,30.897,69.103,5.40586,8.98339,,,,10.1039/d2nj05903g,,2023
0.04,Al,0.6132,Null,,3.62966,Co-precipitation,400,3,230,30,3,9.21034,45.8472,54.1528,5.59781,13.9003,,,,10.1039/d2nj05903g,,2023
0.04,Al,0.6132,Null,,3.62966,Co-precipitation,400,3,250,30,3,9.21034,60.1329,39.8671,5.53065,17.6502,,,,10.1039/d2nj05903g,,2023
0.4133,Al,0.4732,Null,,4.33205,Co-precipitation,400,3,190,30,3,9.21034,20.598,79.402,5.46767,8.31894,,,,10.1039/d2nj05903g,,2023
0.4133,Al,0.4732,Null,,4.33205,Co-precipitation,400,3,210,30,3,9.21034,35.2159,64.7841,5.79065,14.0997,,,,10.1039/d2nj05903g,,2023
0.4133,Al,0.4732,Null,,4.33205,Co-precipitation,400,3,230,30,3,9.21034,42.87,54.8173,5.99301,20.412,,,,10.1039/d2nj05903g,,2023
0.4133,Al,0.4732,Null,,4.33205,Co-precipitation,400,3,250,30,3,9.21034,51.25,46.1794,5.93541,22.8704,,,,10.1039/d2nj05903g,,2023
0.4233,Al,0.52,Null,,4.06732,Co-precipitation,400,3,190,30,3,9.21034,19.6667,80.3333,5.35971,7.37748,,,,10.1039/d2nj05903g,,2023
0.4233,Al,0.52,Null,,4.06732,Co-precipitation,400,3,210,30,3,9.21034,35.6667,64.3333,5.67756,12.6755,,,,10.1039/d2nj05903g,,2023
0.4233,Al,0.52,Null,,4.06732,Co-precipitation,400,3,230,30,3,9.21034,47.3333,52.6667,5.87986,18.9669,,,,10.1039/d2nj05903g,,2023
0.4233,Al,0.52,Null,,4.06732,Co-precipitation,400,3,250,30,3,9.21034,53.77,44,5.87156,22.5146,,,,10.1039/d2nj05903g,,2023
0.362,Al,0.34676,Null,,4.35671,Co-precipitation,320,3,250,50,8,8.69951,0.19,99.81,6.34541,15.58,,,,10.1016/j.mcat.2020.110776,Effect of In2O3 on the structural properties and catalytic performance of the CuO/ZnO/Al2O3 catalyst in CO2 and CO hydrogenation to methanol,2020
0.362,Al,0.23116,In,0.02122,4.58497,Co-precipitation,320,3,250,50,8,8.69951,0.66,99.34,6.17491,15.24,,,,10.1016/j.mcat.2020.110776,,2020
0.362,Al,0.1156,In,0.04244,4.14313,Co-precipitation,320,3,250,50,8,8.69951,0.28,99.72,5.66504,14.98,,,,10.1016/j.mcat.2020.110776,,2020
0.362,Null,,In,0.06368,4.15888,Co-precipitation,320,3,250,50,8,8.69951,0.25,99.75,5.26899,13.99,,,,10.1016/j.mcat.2020.110776,,2020
0.3124,Al,1.496,Null,,4.8752,Co-precipitation,300,2,200,50,3,9.65503,21.7674,78.2326,2.29714,6.71,,,,10.1016/j.jcat.2022.01.035,Effect of surface basicity over the supported Cu-ZnO catalysts on hydrogenation of CO2 to methanol,2022
0.3124,Al,1.496,Null,,4.8752,Co-precipitation,300,2,220,50,3,9.65503,30.9767,69.0233,5.71216,8.29,,,,10.1016/j.jcat.2022.01.035,,2022
0.3124,Al,1.496,Null,,4.8752,Co-precipitation,300,2,240,50,3,9.65503,43.9535,56.0465,5.71489,10.15,,,,10.1016/j.jcat.2022.01.035,,2022
0.3124,Al,1.496,Null,,4.8752,Co-precipitation,300,2,260,50,3,9.65503,61.7442,38.2558,5.60235,13.82,,,,10.1016/j.jcat.2022.01.035,,2022
0.3124,Al,1.496,Null,,4.8752,Co-precipitation,300,2,280,50,3,9.65503,73.14,19.17,5.21115,18.73,,,,10.1016/j.jcat.2022.01.035,,2022
0.3124,Al,0.748,Mg,0.4731,5.2575,Co-precipitation,300,2,200,50,3,9.65503,12.7674,87.2326,5.89885,8.2,,,,10.1016/j.jcat.2022.01.035,,2022
0.3124,Al,0.748,Mg,0.4731,5.2575,Co-precipitation,300,2,220,50,3,9.65503,24.0698,75.9302,6.07532,11.01,,,,10.1016/j.jcat.2022.01.035,,2022
0.3124,Al,0.748,Mg,0.4731,5.2575,Co-precipitation,300,2,240,50,3,9.65503,35.7907,64.2093,6.17142,14.76,,,,10.1016/j.jcat.2022.01.035,,2022
0.3124,Al,0.748,Mg,0.4731,5.2575,Co-precipitation,300,2,260,50,3,9.65503,51.6977,48.3023,6.10901,18,,,,10.1016/j.jcat.2022.01.035,,2022
0.3124,Al,0.748,Mg,0.4731,5.2575,Co-precipitation,300,2,280,50,3,9.65503,70.7442,29.2558,5.8283,22.69,,,,10.1016/j.jcat.2022.01.035,,2022
0.3124,Mg,0.9461,Null,,4.7185,Co-precipitation,300,2,200,50,3,9.65503,9.2093,90.7907,5.8782,7.45,,,,10.1016/j.jcat.2022.01.035,,2022
0.3124,Mg,0.9461,Null,,4.7185,Co-precipitation,300,2,220,50,3,9.65503,15.907,84.093,6.05027,9.92,,,,10.1016/j.jcat.2022.01.035,,2022
0.3124,Mg,0.9461,Null,,4.7185,Co-precipitation,300,2,240,50,3,9.65503,25.08,71.9535,6.1575,12.63,,,,10.1016/j.jcat.2022.01.035,,2022
0.3124,Mg,0.9461,Null,,4.7185,Co-precipitation,300,2,260,50,3,9.65503,44.7907,55.2093,6.15925,16.6,,,,10.1016/j.jcat.2022.01.035,,2022
0.3124,Mg,0.9461,Null,,4.7185,Co-precipitation,300,2,280,50,3,9.65503,58.02,36.38,5.97532,21.24,,,,10.1016/j.jcat.2022.01.035,,2022
0.25,Mn,0.08333,m_Si,1.667,5.57973,Impregnation,300,4,200,40,3,11.0021,6.8,93.2,5.97889,11.2,,,,10.1016/j.mtchem.2021.100489,Effect of synthesis method on the ultimate properties of copper-based catalysts supported on KIT-6 for direct CO2 hydrogenation to methanol,2021
0.25,Mn,0.08333,m_Si,1.667,5.0689,Decomposition-precipitation,300,4,200,40,3,11.0021,2.6,97.4,5.42935,11.2,,,,10.1016/j.mtchem.2021.100489,,2021
0.25,Mn,0.08333,m_Si,1.667,5.26786,Impregnation,300,4,200,40,3,11.0021,2.9,97.1,5.68358,14.5,,,,10.1016/j.mtchem.2021.100489,,2021
0.4313,Al,1.5664,Null,,4.83628,Co-precipitation,400,2,200,30,3,8.69951,29.7814,70.2186,4.196015,4.34783,,,,10.1007/s40242-016-6130-6,Effect of Zr addition on catalytic performance of Cu-Zn-Al oxides for CO2 hydrogenation to methanol,2016
0.4313,Al,1.5664,Null,,4.83628,Co-precipitation,400,2,220,30,3,8.69951,56.5574,43.4426,4.37661,8.4399,,,,10.1007/s40242-016-6130-6,,2016
0.4313,Al,1.5664,Null,,4.83628,Co-precipitation,400,2,240,30,3,8.69951,59.2896,40.7104,4.71948,12.7366,,,,10.1007/s40242-016-6130-6,,2016
0.4313,Al,1.5664,Null,,4.83628,Co-precipitation,400,2,260,30,3,8.69951,73.4973,26.5027,4.60576,17.4425,,,,10.1007/s40242-016-6130-6,,2016
0.4589,Al,1.0712,Zr,0.09168,4.78749,Co-precipitation,400,2,200,30,3,8.69951,20.2186,79.7814,4.69533,6.34271,,,,10.1007/s40242-016-6130-6,,2016
0.4589,Al,1.0712,Zr,0.09168,4.78749,Co-precipitation,400,2,220,30,3,8.69951,43.1694,56.8306,4.7873,9.76982,,,,10.1007/s40242-016-6130-6,,2016
0.4589,Al,1.0712,Zr,0.09168,4.78749,Co-precipitation,400,2,240,30,3,8.69951,54.918,45.082,4.99997,15.2591,,,,10.1007/s40242-016-6130-6,,2016
0.4589,Al,1.0712,Zr,0.09168,4.78749,Co-precipitation,400,2,260,30,3,8.69951,65.0273,34.9727,4.95899,18.8747,,,,10.1007/s40242-016-6130-6,,2016
0.4918,Al,0.7656,Zr,0.189,4.82028,Co-precipitation,400,2,200,30,3,8.69951,18.8525,81.1475,4.78162,6.80307,,,,10.1007/s40242-016-6130-6,,2016
0.4918,Al,0.7656,Zr,0.189,4.82028,Co-precipitation,400,2,220,30,3,8.69951,40.7104,59.2896,4.86502,10.1279,,,,10.1007/s40242-016-6130-6,,2016
0.4918,Al,0.7656,Zr,0.189,4.82028,Co-precipitation,400,2,240,30,3,8.69951,55.1913,44.8087,4.94859,14.578,,,,10.1007/s40242-016-6130-6,,2016
0.4918,Al,0.7656,Zr,0.189,4.82028,Co-precipitation,400,2,260,30,3,8.69951,65.3005,34.6995,4.9512,18.8747,,,,10.1007/s40242-016-6130-6,,2016
0.4534,Al,0.3008,Zr,0.2787,4.82831,Co-precipitation,400,2,200,30,3,8.69951,22.08,77.92,4.74239,6.81,,,,10.1007/s40242-016-6130-6,,2016
0.4534,Al,0.3008,Zr,0.2787,4.82831,Co-precipitation,400,2,220,30,3,8.69951,47.73,52.27,4.80559,10.82,,,,10.1007/s40242-016-6130-6,,2016
0.4534,Al,0.3008,Zr,0.2787,4.82831,Co-precipitation,400,2,240,30,3,8.69951,69.16,30.84,4.67346,16.05,,,,10.1007/s40242-016-6130-6,,2016
0.4534,Al,0.3008,Zr,0.2787,4.82831,Co-precipitation,400,2,260,30,3,8.69951,69.48,30.52,4.7494,17.51,,,,10.1007/s40242-016-6130-6,,2016
0.4929,Zr,0.373,Null,,4.59512,Co-precipitation,400,2,200,30,3,8.69951,23.8579,76.1421,2.82477,0.971867,,,,10.1007/s40242-016-6130-6,,2016
0.4929,Zr,0.373,Null,,4.59512,Co-precipitation,400,2,220,30,3,8.69951,61.4754,38.5246,3.91168,5.9335,,,,10.1007/s40242-016-6130-6,,2016
0.4929,Zr,0.373,Null,,4.59512,Co-precipitation,400,2,240,30,3,8.69951,84.153,15.847,3.51099,9.56522,,,,10.1007/s40242-016-6130-6,,2016
0.4929,Zr,0.373,Null,,4.59512,Co-precipitation,400,2,260,30,3,8.69951,89.8907,10.1093,3.42053,13.6573,,,,10.1007/s40242-016-6130-6,,2016
0.7295,Zr,0.6433,Null,,4.82028,Reverse co-precipitation,350,2,200,20,3,9.65503,26.81,73.19,4.78927,3.82,,,,10.1016/j.cej.2017.11.117,"Enhanced activity, selectivity and stability of a CuO-ZnO-ZrO2 catalyst by adding graphene oxide for CO2 hydrogenation to methanol",2018
0.7295,Zr,0.6433,Null,,4.82028,Reverse co-precipitation,350,2,220,20,3,9.65503,45.41,54.59,5.17728,7.53,,,,10.1016/j.cej.2017.11.117,,2018
0.7295,Zr,0.6433,Null,,4.82028,Reverse co-precipitation,350,2,240,20,3,9.65503,58.36,41.64,5.29567,13.49,,,,10.1016/j.cej.2017.11.117,,2018
0.7295,Zr,0.6433,Null,,4.82028,Reverse co-precipitation,350,2,260,20,3,9.65503,81.41,18.59,4.80549,16.26,,,,10.1016/j.cej.2017.11.117,,2018
0.7295,Zr,0.6433,Null,,4.82028,Reverse co-precipitation,350,2,280,20,3,9.65503,92.8,7.2,4.15704,24.05,,,,10.1016/j.cej.2017.11.117,,2018
0.7362,Zr,0.6742,GO,0.03217,4.91265,Reverse co-precipitation,350,2,200,20,3,9.65503,25.85,74.15,5.16239,4.29,,,,10.1016/j.cej.2017.11.117,,2018
0.7362,Zr,0.6742,GO,0.03217,4.91265,Reverse co-precipitation,350,2,220,20,3,9.65503,44.31,55.69,5.44487,9.11,,,,10.1016/j.cej.2017.11.117,,2018
0.7362,Zr,0.6742,GO,0.03217,4.91265,Reverse co-precipitation,350,2,240,20,3,9.65503,57.89,42.11,5.56218,15.29,,,,10.1016/j.cej.2017.11.117,,2018
0.7362,Zr,0.6742,GO,0.03217,4.91265,Reverse co-precipitation,350,2,260,20,3,9.65503,80.69,19.31,5.30222,21.55,,,,10.1016/j.cej.2017.11.117,,2018
0.7362,Zr,0.6742,GO,0.03217,4.91265,Reverse co-precipitation,350,2,280,20,3,9.65503,90.41,9.59,4.28217,24.63,,,,10.1016/j.cej.2017.11.117,,2018
0.7472,Zr,0.6763,GO,0.05332,4.97673,Reverse co-precipitation,350,2,200,20,3,9.65503,23.08,76.92,5.16239,4.29,,,,10.1016/j.cej.2017.11.117,,2018
0.7472,Zr,0.6763,GO,0.05332,4.97673,Reverse co-precipitation,350,2,220,20,3,9.65503,42.79,57.21,5.56469,9.11,,,,10.1016/j.cej.2017.11.117,,2018
0.7472,Zr,0.6763,GO,0.05332,4.97673,Reverse co-precipitation,350,2,240,20,3,9.65503,55.89,44.11,5.61842,15.29,,,,10.1016/j.cej.2017.11.117,,2018
0.7472,Zr,0.6763,GO,0.05332,4.97673,Reverse co-precipitation,350,2,260,20,3,9.65503,76.5,23.5,5.48643,21.76,,,,10.1016/j.cej.2017.11.117,,2018
0.7472,Zr,0.6763,GO,0.05332,4.97673,Reverse co-precipitation,350,2,280,20,3,9.65503,90.5,9.5,4.63014,24.63,,,,10.1016/j.cej.2017.11.117,,2018
0.7626,Zr,0.6816,GO,0.1372,4.85203,Reverse co-precipitation,350,2,200,20,3,9.65503,26.81,73.19,5.13962,4.29,,,,10.1016/j.cej.2017.11.117,,2018
0.7626,Zr,0.6816,GO,0.1372,4.85203,Reverse co-precipitation,350,2,220,20,3,9.65503,45.41,54.59,5.47277,9.11,,,,10.1016/j.cej.2017.11.117,,2018
0.7626,Zr,0.6816,GO,0.1372,4.85203,Reverse co-precipitation,350,2,240,20,3,9.65503,58.36,41.64,5.52893,15.29,,,,10.1016/j.cej.2017.11.117,,2018
0.7626,Zr,0.6816,GO,0.1372,4.85203,Reverse co-precipitation,350,2,260,20,3,9.65503,84.41,15.59,5.29567,21.76,,,,10.1016/j.cej.2017.11.117,,2018
0.7626,Zr,0.6816,GO,0.1372,4.85203,Reverse co-precipitation,350,2,280,20,3,9.65503,92.8,7.2,4.33503,24.69,,,,10.1016/j.cej.2017.11.117,,2018
0.7575,Zr,0.6727,GO,0.1912,4.65396,Reverse co-precipitation,350,2,200,20,3,9.65503,26.81,73.19,4.61079,2.92,,,,10.1016/j.cej.2017.11.117,,2018
0.7575,Zr,0.6727,GO,0.1912,4.65396,Reverse co-precipitation,350,2,220,20,3,9.65503,45.19,54.81,5.16239,6.3,,,,10.1016/j.cej.2017.11.117,,2018
0.7575,Zr,0.6727,GO,0.1912,4.65396,Reverse co-precipitation,350,2,240,20,3,9.65503,55.89,44.11,5.26567,11.4,,,,10.1016/j.cej.2017.11.117,,2018
0.7575,Zr,0.6727,GO,0.1912,4.65396,Reverse co-precipitation,350,2,260,20,3,9.65503,80.93,19.07,4.7447,17.52,,,,10.1016/j.cej.2017.11.117,,2018
0.7575,Zr,0.6727,GO,0.1912,4.65396,Reverse co-precipitation,350,2,280,20,3,9.65503,89.8,10.2,4.53644,22.01,,,,10.1016/j.cej.2017.11.117,,2018
0.784,Zr,0.6697,GO,0.4648,4.55388,Reverse co-precipitation,350,2,200,20,3,9.65503,25.85,74.15,4.4637,2.18,,,,10.1016/j.cej.2017.11.117,,2018
0.784,Zr,0.6697,GO,0.4648,4.55388,Reverse co-precipitation,350,2,220,20,3,9.65503,44.31,55.69,4.87786,4.95,,,,10.1016/j.cej.2017.11.117,,2018
0.784,Zr,0.6697,GO,0.4648,4.55388,Reverse co-precipitation,350,2,240,20,3,9.65503,54.89,45.11,5.20643,7.99,,,,10.1016/j.cej.2017.11.117,,2018
0.784,Zr,0.6697,GO,0.4648,4.55388,Reverse co-precipitation,350,2,260,20,3,9.65503,82.69,17.31,4.94068,15.86,,,,10.1016/j.cej.2017.11.117,,2018
0.784,Zr,0.6697,GO,0.4648,4.55388,Reverse co-precipitation,350,2,280,20,3,9.65503,90.5,9.5,4.45612,21.67,,,,10.1016/j.cej.2017.11.117,,2018
0.4286,Al,0.9524,a_SiO2,0.01428,4.54329,Mechanical grinding,330,3,180,43,5,7.6009,8.2,91.6,4.82651,4.7294,,,,10.1016/j.apcatb.2023.123099,Enhancing methanol selectivity of commercial Cu/ZnO/Al2O3 catalyst in CO2 hydrogenation by surface silylation,2023
0.4286,Al,0.9524,a_SiO2,0.01428,4.54329,Mechanical grinding,330,3,210,43,5,7.6009,17.4,82.6,5.26762,8.176,,,,10.1016/j.apcatb.2023.123099,,2023
0.4286,Al,0.9524,a_SiO2,0.01428,4.54329,Mechanical grinding,330,3,225,43,5,7.6009,26.6,73.2,5.33776,9.8997,,,,10.1016/j.apcatb.2023.123099,,2023
0.4286,Al,0.9524,a_SiO2,0.01428,4.54329,Mechanical grinding,330,3,245,43,5,7.6009,35.6,63.4,5.48006,13.1863,,,,10.1016/j.apcatb.2023.123099,,2023
26,ZrO2/S,20,Null,,4.54329,Co-precipitation,500,3,230,45,3,9.2873,13.7978,86.2022,2.67162,0.40492,,,,10.1016/j.jcat.2020.11.039,,2021
26,ZrO2/S,20,Null,,4.54329,Co-precipitation,500,3,260.287,45,3,9.2873,18.5246,81.4754,4.64909,3.29309,,,,10.1016/j.jcat.2020.11.039,,2021
26,ZrO2/S,20,Null,,4.54329,Co-precipitation,500,3,290.164,45,3,9.2873,22.6958,77.3042,5.62981,9.31034,,,,10.1016/j.jcat.2020.11.039,,2021
26,ZrO2/S,20,Null,,4.56435,Co-precipitation,500,3,299.822,45,3,9.2873,25.2823,74.7177,5.75496,10.9215,,,,10.1016/j.jcat.2020.11.039,,2021
26,ZrO2/S,20,Null,,4.56435,Co-precipitation,500,3,310,45,3,9.2873,32.8689,67.1311,5.79642,12.6719,,,,10.1016/j.jcat.2020.11.039,,2021
26,ZrO2/S,20,Null,,4.56435,Co-precipitation,500,3,319.63,45,3,9.2873,41.8534,58.1466,5.75786,14.0749,,,,10.1016/j.jcat.2020.11.039,,2021
26,ZrO2/S,20,Null,,4.56435,Co-precipitation,500,3,330,45,3,9.2873,54.7222,45.2778,5.62975,15.8948,,,,10.1016/j.jcat.2020.11.039,,2021
13,ZrO2/S,20,Null,,4.56435,Co-precipitation,500,3,230.215,45,3,9.2873,16.5756,83.4244,2.79142,0.475611,,,,10.1016/j.jcat.2020.11.039,,2021
13,ZrO2/S,20,Null,,4.56435,Co-precipitation,500,3,260,45,3,9.2873,23.7933,73.2067,4.58377,3.43108,,,,10.1016/j.jcat.2020.11.039,,2021
13,ZrO2/S,20,Null,,4.56435,Co-precipitation,500,3,289.587,45,3,9.2873,30.6311,69.3689,5.66706,10.7705,,,,10.1016/j.jcat.2020.11.039,,2021
13,ZrO2/S,20,Null,,4.76217,Co-precipitation,500,3,299.75,45,3,9.2873,35.8379,64.1621,5.70563,12.1041,,,,10.1016/j.jcat.2020.11.039,,2021
13,ZrO2/S,20,Null,,4.76217,Co-precipitation,500,3,309.391,45,3,9.2873,44.5401,55.4599,5.70493,13.9935,,,,10.1016/j.jcat.2020.11.039,,2021
13,ZrO2/S,20,Null,,4.76217,Co-precipitation,500,3,319.515,45,3,9.2873,51.6913,48.3087,5.69796,15.9531,,,,10.1016/j.jcat.2020.11.039,,2021
13,ZrO2/S,20,Null,,4.76217,Co-precipitation,500,3,329.631,45,3,9.2873,66.1111,33.8889,5.4679,18.0517,,,,10.1016/j.jcat.2020.11.039,,2021
6.5,ZrO2/S,20,Null,,4.76217,Co-precipitation,500,3,230,45,3,9.2873,27.6821,72.3179,3.39468,1.03266,,,,10.1016/j.jcat.2020.11.039,,2021
6.5,ZrO2/S,20,Null,,4.76217,Co-precipitation,500,3,260.202,45,3,9.2873,34.3488,65.6512,4.78431,4.68429,,,,10.1016/j.jcat.2020.11.039,,2021
6.5,ZrO2/S,20,Null,,6.10256,Co-precipitation,500,3,290,45,3,9.2873,43.7933,56.2067,5.58979,12.3009,,,,10.1016/j.jcat.2020.11.039,,2021
6.5,ZrO2/S,20,Null,,6.07074,Co-precipitation,500,3,299.606,45,3,9.2873,47.5,52.5,5.68358,14.4691,,,,10.1016/j.jcat.2020.11.039,,2021
6.5,ZrO2/S,20,Null,,6.08904,Co-precipitation,500,3,310,45,3,9.2873,52.5956,47.4044,5.70837,16.4281,,,,10.1016/j.jcat.2020.11.039,,2021
6.5,ZrO2/S,20,Null,,5.78383,Co-precipitation,500,3,320,45,3,9.2873,59.0756,40.9244,5.6817,18.5268,,,,10.1016/j.jcat.2020.11.039,,2021
0.9231,Null,,SiO2/S,20,2.92852,Impregnation,300,1,250,30,3,10.6919,72.26,27.74,5.07079,8.9,,,,10.1016/j.apcatb.2019.117941,Highly efficient CuO/ZnO/ZrO2@SBA-15 nanocatalysts for methanol synthesis from the catalytic hydrogenation of CO2,2019
0.9124,Zr,0.7919,SiO2/S,20,2.92852,Impregnation,300,1,250,30,3,10.6919,69.4,30.6,5.93251,19.2,,,,10.1016/j.apcatb.2019.117941,,2019
0.4731,Zr,0.6381,SiO2/S,20,2.92852,Impregnation,300,1,250,30,3,10.6919,73.63,26.37,5.78475,19.1,,,,10.1016/j.apcatb.2019.117941,,2019
0.4871,Zr,0.6699,SiO2/S,20,2.92852,Impregnation,300,1,250,30,3,10.6919,75.65,24.35,5.52625,16,,,,10.1016/j.apcatb.2019.117941,,2019
1,Null,,Null,,3.18221,Decomposition-precipitation,50,12,230,45,3,9.2873,37.6309,62.3691,3.4012,1.17284,,,,10.1016/j.jcat.2017.12.029,Hydrogen spillover enabled active Cu sites for methanol synthesis from CO2 hydrogenation over Pd doped CuZn catalysts,2018
1,Null,,Null,,3.18221,Decomposition-precipitation,50,12,250,45,3,9.2873,40.9366,59.0634,3.93183,2.19136,,,,10.1016/j.jcat.2017.12.029,,2018
1,Null,,Null,,3.18221,Decomposition-precipitation,50,12,270,45,3,9.2873,47.7686,52.2314,4.43675,4.19753,,,,10.1016/j.jcat.2017.12.029,,2018
1,Null,,Null,,3.18221,Decomposition-precipitation,50,12,290,45,3,9.2873,59.449,40.551,4.65871,6.69753,,,,10.1016/j.jcat.2017.12.029,,2018
1,Pd,0.005,Null,,2.90142,Decomposition-precipitation,50,12,230,45,3,9.2873,30.7989,69.2011,3.68888,1.51235,,,,10.1016/j.jcat.2017.12.029,,2018
1,Pd,0.005,Null,,2.90142,Decomposition-precipitation,50,12,250,45,3,9.2873,37.1901,62.8099,4.17439,2.59259,,,,10.1016/j.jcat.2017.12.029,,2018
1,Pd,0.005,Null,,2.90142,Decomposition-precipitation,50,12,270,45,3,9.2873,38.5124,61.4876,4.59006,4.10494,,,,10.1016/j.jcat.2017.12.029,,2018
1,Pd,0.005,Null,,2.90142,Decomposition-precipitation,50,12,290,45,3,9.2873,45.7851,54.2149,4.75789,5.49383,,,,10.1016/j.jcat.2017.12.029,,2018
1,Pd,0.01,Null,,2.97553,Decomposition-precipitation,50,12,230,45,3,9.2873,22.2039,77.7961,4.78749,3.08642,,,,10.1016/j.jcat.2017.12.029,,2018
1,Pd,0.01,Null,,2.97553,Decomposition-precipitation,50,12,250,45,3,9.2873,26.832,73.168,5.10595,5.80247,,,,10.1016/j.jcat.2017.12.029,,2018
1,Pd,0.01,Null,,2.97553,Decomposition-precipitation,50,12,270,45,3,9.2873,35.6474,64.3526,5.33513,8.30247,,,,10.1016/j.jcat.2017.12.029,,2018
1,Pd,0.01,Null,,2.97553,Decomposition-precipitation,50,12,290,45,3,9.2873,48.8705,51.1295,5.2933,10,,,,10.1016/j.jcat.2017.12.029,,2018
1,Pd,0.02,Null,,2.98568,Decomposition-precipitation,50,12,230,45,3,9.2873,22.4242,77.5758,4.33073,2.5,,,,10.1016/j.jcat.2017.12.029,,2018
1,Pd,0.02,Null,,2.98568,Decomposition-precipitation,50,12,250,45,3,9.2873,30.7989,69.2011,4.82831,4.69136,,,,10.1016/j.jcat.2017.12.029,,2018
1,Pd,0.02,Null,,2.98568,Decomposition-precipitation,50,12,270,45,3,9.2873,38.5124,61.4876,5.11799,7.00617,,,,10.1016/j.jcat.2017.12.029,,2018
1,Pd,0.02,Null,,2.98568,Decomposition-precipitation,50,12,290,45,3,9.2873,45.7851,54.2149,5.21221,8.7963,,,,10.1016/j.jcat.2017.12.029,,2018
1,Pd,0.03,Null,,2.99072,Decomposition-precipitation,50,12,230,45,3,9.2873,22.2039,77.7961,3.91202,1.69753,,,,10.1016/j.jcat.2017.12.029,,2018
1,Pd,0.03,Null,,2.99072,Decomposition-precipitation,50,12,250,45,3,9.2873,28.1543,71.8457,4.61016,3.58025,,,,10.1016/j.jcat.2017.12.029,,2018
1,Pd,0.03,Null,,2.99072,Decomposition-precipitation,50,12,270,45,3,9.2873,31.4601,68.5399,4.99383,5.58642,,,,10.1016/j.jcat.2017.12.029,,2018
1,Pd,0.03,Null,,2.99072,Decomposition-precipitation,50,12,290,45,3,9.2873,36.3085,63.6915,5.12396,6.79012,,,,10.1016/j.jcat.2017.12.029,,2018
1,Pd,0.04,Null,,3.94932,Decomposition-precipitation,50,12,230,45,3,9.2873,26.832,73.168,3.58352,1.2963,,,,10.1016/j.jcat.2017.12.029,,2018
1,Pd,0.04,Null,,3.69635,Decomposition-precipitation,50,12,250,45,3,9.2873,28.3747,71.6253,4.4128,2.99383,,,,10.1016/j.jcat.2017.12.029,,2018
1,Pd,0.04,Null,,4.18205,Decomposition-precipitation,50,12,270,45,3,9.2873,29.4766,70.5234,4.80811,4.47531,,,,10.1016/j.jcat.2017.12.029,,2018
1,Pd,0.04,Null,,4.02892,Decomposition-precipitation,50,12,290,45,3,9.2873,31.2397,68.7603,5.03044,5.7716,,,,10.1016/j.jcat.2017.12.029,,2018
0.1111,Null,,Null,,3.85227,Microemulsion,350,2,250,20,3,8.18869,72.1,27.9,3.28211,7.5,,,,10.1007/s11144-020-01919-0,Inverse ZnO/Cu catalysts for methanol synthesis from CO2 hydrogenation,2021
0.25,Null,,Null,,2.70805,Microemulsion,350,2,250,20,3,8.18869,65.7,34.3,3.59027,8,,,,10.1007/s11144-020-01919-0,,2021
0.4286,Null,,Null,,0.693147,Microemulsion,350,2,250,20,3,8.18869,58.3,41.7,3.75307,8.3,,,,10.1007/s11144-020-01919-0,,2021
0.6667,Null,,Null,,3.73767,Microemulsion,350,2,250,20,3,8.18869,40.8,59.2,4.22368,8.9,,,,10.1007/s11144-020-01919-0,,2021
1,Null,,Null,,2.94444,Microemulsion,350,2,250,20,3,8.18869,59.9,40.1,3.82548,8.4,,,,10.1007/s11144-020-01919-0,,2021
1.5,Null,,Null,,1.94591,Microemulsion,350,2,250,20,3,8.18869,65.7,34.3,4.07196,13.5,,,,10.1007/s11144-020-01919-0,,2021
2.5,Null,,Null,,1.79176,Impregnation,500,2,210,30,3,8.18869,31.8291,68.1709,2.30259,1.05263,,,,10.1007/s11164-023-05063-x,Optimizing interfacial interaction between Cu and metal oxides boosts methanol yield in CO2 hydrogenation,2023
2.5,Null,,Null,,1.94591,Impregnation,500,2,210,30,3,8.18869,27.0723,72.9277,3.3673,3.10526,,,,10.1007/s11164-023-05063-x,,2023
2.5,Null,,Null,,1.94591,Co-precipitation,500,2,210,30,3,8.18869,29.7157,70.2843,3.69138,4.5,,,,10.1007/s11164-023-05063-x,,2023
2.5,Null,,Null,,1.94591,Impregnation,500,2,210,30,3,8.18869,28.4218,71.5782,4.10099,6.71053,,,,10.1007/s11164-023-05063-x,,2023
2.5,Null,,Null,,1.94591,Impregnation,500,2,210,30,3,8.18869,20.0798,79.9202,4.40916,8.23684,,,,10.1007/s11164-023-05063-x,,2023
2.5,Null,,Null,,1.94591,Impregnation,500,2,210,30,3,8.18869,28.4746,71.5254,4.28359,8.10526,,,,10.1007/s11164-023-05063-x,,2023
2.5,Null,,Null,,1.94591,Impregnation,500,2,190,30,3,8.18869,83.7545,16.2455,2.30489,4.31452,,,,10.1007/s11164-023-05063-x,,2023
2.5,Null,,Null,,1.94591,Impregnation,500,2,230,30,3,8.18869,50.9025,49.0975,4.07542,9.15686,,,,10.1007/s11164-023-05063-x,,2023
2.5,Null,,Null,,1.94591,Impregnation,500,2,250,30,3,8.18869,34.296,65.704,4.69398,12.8026,,,,10.1007/s11164-023-05063-x,,2023
2.5,Null,,Null,,1.94591,Impregnation,500,2,270,30,3,8.18869,26.7148,73.2852,5.14353,18.0534,,,,10.1007/s11164-023-05063-x,,2023
2.5,Null,,Null,,1.94591,Impregnation,500,2,290,30,3,8.18869,24.5487,75.4513,5.35159,21.6147,,,,10.1007/s11164-023-05063-x,,2023
2.5,Null,,Null,,6.88233,Impregnation,500,2,210,30,3,7.78322,36.1011,63.8989,3.99416,10.2219,,,,10.1007/s11164-023-05063-x,,2023
2.5,Null,,Null,,6.88233,Impregnation,500,2,210,30,3,8.69951,18.4116,81.5884,4.90179,7.99938,,,,10.1007/s11164-023-05063-x,,2023
2.5,Null,,Null,,6.88233,Impregnation,500,2,210,30,3,9.03599,16.2455,83.7545,5.14674,6.71,,,,10.1007/s11164-023-05063-x,,2023
2.5,Null,,Null,,6.88233,Impregnation,500,2,210,30,3,9.2873,15.1625,84.8375,4.99613,4.59052,,,,10.1007/s11164-023-05063-x,,2023
2.5,Null,,Null,,6.88233,Impregnation,500,2,210,30,3,9.57498,5.7762,94.2238,4.70502,2.32118,,,,10.1007/s11164-023-05063-x,,2023
0.75,Null,,Null,,3.05871,Co-precipitation,450,4,220,40,3,7.31322,41.6317,58.3683,3.1506,6.79769,,,,10.1016/j.matchemphys.2018.05.028,Preparation of novel bimetallic CuZn-BTC coordination polymer nanorod for methanol synthesis from CO2 hydrogenation,2018
0.75,Null,,Null,,3.05871,Co-precipitation,450,4,230,40,3,7.31322,44.2153,55.7847,3.46455,11.1069,,,,10.1016/j.matchemphys.2018.05.028,,2018
0.75,Null,,Null,,3.05871,Co-precipitation,450,4,240,40,3,7.31322,49.4164,50.5836,3.43195,13.7168,,,,10.1016/j.matchemphys.2018.05.028,,2018
0.75,Null,,Null,,3.05871,Co-precipitation,450,4,250,40,3,7.31322,50.1303,49.8697,3.66186,17.2977,,,,10.1016/j.matchemphys.2018.05.028,,2018
0.75,Null,,Null,,3.05871,Co-precipitation,450,4,260,40,3,7.31322,51.3201,48.6799,3.79019,20.3931,,,,10.1016/j.matchemphys.2018.05.028,,2018
0.78,Null,,Null,,3.57951,MOF-derived,450,3,220,40,3,7.31322,41.1218,58.8782,3.34907,8.31503,,,,10.1016/j.matchemphys.2018.05.028,,2018
0.78,Null,,Null,,4.81224,MOF-derived,450,3,230,40,3,7.31322,41.2238,58.7762,3.74276,12.9277,,,,10.1016/j.matchemphys.2018.05.028,,2018
0.78,Null,,Null,,4.92843,MOF-derived,450,3,240,40,3,7.31322,40.8159,59.1841,4.00974,16.9335,,,,10.1016/j.matchemphys.2018.05.028,,2018
0.78,Null,,Null,,5.0121,MOF-derived,450,3,250,40,3,7.31322,41.8357,58.1643,4.07802,18.8757,,,,10.1016/j.matchemphys.2018.05.028,,2018
[...]
0.4,Zr,0.6,Null,,3.96821,Co-precipitation,350,2,250,30,3,8.18869,60.14,39.86,4.71703,21.36,,,,10.1007/s12598-015-0520-7,,2016
0.2,Zr,0.8,Null,,3.03927,Co-precipitation,350,2,250,30,3,8.18869,52.28,47.72,5.00335,23.81,,,,10.1007/s12598-015-0520-7,,2016
0.0355612,Null,,Null,,,Surface modification precipitation,350,4,250,30,3,9.79813,0,100,4.02157,0.8,,,,10.1016/j.jcat.2015.12.005,The Cu-ZnO synergy in methanol synthesis Part 3: Impact of the composition of a selective Cu@ZnO<i><sub>x</sub></i> core-shell catalyst on methanol rate explained by experimental studies and a concentric spheres model,2016
0.100988,Null,,Null,,,Surface modification precipitation,350,4,250,30,3,9.79813,0.1,99.9,5.00969,2.3,,,,10.1016/j.jcat.2015.12.005,,2016
0.382428,Null,,Null,,,Surface modification precipitation,350,4,250,30,3,9.79813,2.6,97.4,4.74603,1.8,,,,10.1016/j.jcat.2015.12.005,,2016
0.356402,Null,,Null,,,Surface modification precipitation,350,4,250,30,3,9.79813,0.6,99.4,4.6497,1.6,,,,10.1016/j.jcat.2015.12.005,,2016
0.416667,Al,0.25,Null,,3.28466,Mechanical milling and combustion,450,4,240,30,3,8.18869,37.7,62.3,3.82864,5.6,,,,10.1016/j.fuel.2015.09.082,Hydrogenation of CO<sub>2</sub> to CH<sub>3</sub>OH over CuO/ZnO/Al<sub>2</sub>O<sub>3</sub> catalysts prepared via a solvent-free routine,2016
0.416667,Al,0.25,Null,,3.88978,Mechanical milling and combustion,450,4,240,30,3,8.18869,37.1,62.9,4.29046,8.9,,,,10.1016/j.fuel.2015.09.082,,2016
0.416667,Al,0.25,Null,,4.17131,Mechanical milling and combustion,450,4,240,30,3,8.18869,36.4,63.6,4.79579,14.6,,,,10.1016/j.fuel.2015.09.082,,2016
0.416667,Al,0.25,Null,,4.35157,Mechanical milling and combustion,450,4,240,30,3,8.18869,36.2,63.8,4.8752,16.2,,,,10.1016/j.fuel.2015.09.082,,2016
0.416667,Al,0.25,Null,,3.99452,Mechanical milling and combustion,450,4,240,30,3,8.18869,37.4,62.6,4.61512,12.1,,,,10.1016/j.fuel.2015.09.082,,2016
0.416667,Al,0.25,Null,,2.85071,Mechanical milling and combustion,450,4,240,30,3,8.18869,46.1,53.9,3.13549,3.2,,,,10.1016/j.fuel.2015.09.082,,2016
0.416667,Al,0.25,Null,,3.76584,Co-precipitation,450,4,240,30,3,8.18869,36.7,63.3,4.20469,8.1,,,,10.1016/j.fuel.2015.09.082,,2016
0.474286,Al,0.325714,Zr,0.104762,4.21951,Co-precipitation,500,4,230,50,3,9.04782,41.5,58.5,5.80212,19.3,,,,10.1016/j.jcou.2016.06.001,Fluorinated Cu/Zn/A1/Zr hydrotalcites derived nanocatalysts for CO<sub>2</sub> hydrogenation to methanol,2016
0.468691,Al,0.324478,Zr,0.104364,4.15888,Co-precipitation,500,4,230,50,3,9.04782,37.4,62.6,5.86079,18.7,,,,10.1016/j.jcou.2016.06.001,,2016
0.465909,Al,0.323864,Zr,0.104167,4.12713,Co-precipitation,500,4,230,50,3,9.04782,31.6,68.4,5.9428,18,,,,10.1016/j.jcou.2016.06.001,,2016
0.470588,Al,0.324478,Zr,0.102467,4.06044,Co-precipitation,500,4,230,50,3,9.04782,36.9,63.1,5.77144,16.8,,,,10.1016/j.jcou.2016.06.001,,2016
0.473585,Al,0.307547,Zr,0.10566,3.97029,Co-precipitation,500,4,230,50,3,9.04782,38.1,61.9,5.60212,14.2,,,,10.1016/j.jcou.2016.06.001,,2016
1,Null,,Null,,4.18965,Impregnation,350,2,250,15,3,7.78322,97.2,2.8,5.39816,14,,,,10.1016/j.jcou.2016.07.002,CO<sub>2</sub> hydrogenation to methanol using Cu-Zn catalyst supported on reduced graphene oxide nanosheets,2016
1,Null,,Null,,4.41884,Impregnation,350,2,250,15,3,7.78322,94.9,5.1,6.05209,26,,,,10.1016/j.jcou.2016.07.002,,2016
1,Null,,Null,,3.71357,Impregnation,350,2,250,15,3,7.78322,91.5,8.5,5.50126,19,,,,10.1016/j.jcou.2016.07.002,,2016
1,Null,,Null,,3.73767,Impregnation,350,2,250,15,3,7.78322,84.4,15.6,5.50126,20,,,,10.1016/j.jcou.2016.07.002,,2016
0.370927,La,1.13534,Null,,-0.356675,Sol-gel,400,2,250,50,3,8.18869,42.1,57.9,3.93183,6.4,,,,10.1016/j.jpowsour.2013.11.037,"Methanol synthesis from CO<sub>2</sub> hydrogenation over La-M-Cu-Zn-O (M = Y, Ce, Mg, Zr) catalysts derived from perovskite-type precursors",2014
0.496815,La,1.44268,Ce,0.245223,0.262364,Sol-gel,400,2,250,50,3,8.18869,36.7,63.3,4.39445,8.1,,,,10.1016/j.jpowsour.2013.11.037,,2014
0.29563,La,0.966581,Mg,0.308483,0.182322,Sol-gel,400,2,250,50,3,8.18869,34.8,65.2,4.51086,9.1,,,,10.1016/j.jpowsour.2013.11.037,,2014
0.566406,La,1.97266,Zr,0.3671875,0.832909,Sol-gel,400,2,250,50,3,8.18869,47.5,52.5,4.61512,12.6,,,,10.1016/j.jpowsour.2013.11.037,,2014
0.261614,La,0.95599,Y,0.227384,-0.356675,Sol-gel,400,2,250,50,3,8.18869,40.4,59.6,3.71357,5,,,,10.1016/j.jpowsour.2013.11.037,,2014
0.75,Al,0.75,Null,,4.36055,Co-precipitation,400,5,230,30,3,7.71468,57,43,4.24687,18.7,,,,10.1016/j.apcata.2013.10.010,Development of highly stable catalyst for methanol synthesis from carbon dioxide,2014
0.75,Zr,0.375,Al,0.375,4.66627,Co-precipitation,400,5,230,30,3,7.71468,39.7,60.3,4.79703,23.2,,,,10.1016/j.apcata.2013.10.010,,2014
0.75,Zr,0.75,Null,,4.50976,Co-precipitation,400,5,230,30,3,7.71468,51.4,48.6,4.39963,19.3,,,,10.1016/j.apcata.2013.10.010,,2014
0.5,Al,0.04,Zr,0.46,4.11087,Co-precipitation,500,4,250,50,3,8.29405,54.7,45.3,5.96871,21.9,,,,10.1016/j.catcom.2014.03.006,Fluorine-modified Cu/Zn/Al/Zr catalysts via hydrotalcite-like precursors for CO<sub>2</sub> hydrogenation to methanol,2014
0.5,Al,0.12,Zr,0.38,4.23411,Co-precipitation,500,4,250,50,3,8.29405,53.1,46.9,6.01859,22.5,,,,10.1016/j.catcom.2014.03.006,,2014
0.5,Al,0.04,Zr,0.04,3.3673,Co-precipitation,500,4,250,50,3,8.29405,47.7,52.3,6.06611,20.5,,,,10.1016/j.catcom.2014.03.006,,2014
0.5,Al,0.12,Zr,0.12,3.63759,Co-precipitation,500,4,250,50,3,8.29405,46.5,53.5,6.08904,21.1,,,,10.1016/j.catcom.2014.03.006,,2014
0.492119,Zr,0.259194,Null,0,5.0626,Co-precipitation,350,4,180,30,3,9.21034,7.6,92.4,4.51371,2.9,,,,10.1016/j.apcatb.2014.01.035,The changing nature of the active site of Cu-Zn-Zr catalysts for the CO<sub>2</sub> hydrogenation reaction to methanol,2014
0.492119,Zr,0.259194,Null,0,5.0626,Co-precipitation,350,4,200,30,3,9.21034,24.8,75.2,4.99924,5.9,,,,10.1016/j.apcatb.2014.01.035,,2014
0.492119,Zr,0.259194,Null,,5.0626,Co-precipitation,350,4,220,30,3,9.21034,38.7,61.3,5.41419,11.1,,,,10.1016/j.apcatb.2014.01.035,,2014
0.492119,Zr,0.259194,Null,,5.0626,Co-precipitation,350,4,240,30,3,9.21034,51.3,48.7,5.54013,16,,,,10.1016/j.apcatb.2014.01.035,,2014
0.491135,Zr,0.281915,Null,,4.8828,Co-precipitation,350,4,180,30,3,9.21034,0,100,4.13341,1.9,,,,10.1016/j.apcatb.2014.01.035,,2014
0.491135,Zr,0.281915,Null,,4.8828,Co-precipitation,350,4,200,30,3,9.21034,13.8,86.2,4.75014,4,,,,10.1016/j.apcatb.2014.01.035,,2014
0.491135,Zr,0.281915,Null,,4.8828,Co-precipitation,350,4,220,30,3,9.21034,29,71,5.1842,7.6,,,,10.1016/j.apcatb.2014.01.035,,2014
0.491135,Zr,0.281915,Null,,4.8828,Co-precipitation,350,4,240,30,3,9.21034,48.2,51.8,5.36742,12.5,,,,10.1016/j.apcatb.2014.01.035,,2014
0.487676,Zr,0.272887,Null,,5.0876,Co-precipitation,350,4,180,30,3,9.21034,10.9,89.1,4.65119,3.6,,,,10.1016/j.apcatb.2014.01.035,,2014
0.487676,Zr,0.272887,Null,,5.0876,Co-precipitation,350,4,200,30,3,9.21034,26.5,73.5,5.13262,7,,,,10.1016/j.apcatb.2014.01.035,,2014
0.487676,Zr,0.272887,Null,,5.0876,Co-precipitation,350,4,220,30,3,9.21034,35.9,64.1,5.68293,14,,,,10.1016/j.apcatb.2014.01.035,,2014
0.487676,Zr,0.272887,Null,,5.0876,Co-precipitation,350,4,240,30,3,9.21034,48.8,51.2,5.70665,18,,,,10.1016/j.apcatb.2014.01.035,,2014
0.6,Zr,0.4,Null,,4.42245,Co-precipitation,400,5,230,30,3,7.71423,55.6,44.4,4.31337,19.6,,,,10.1016/j.catcom.2014.05.014,"Influence of rare-earth elements (La, Ce, Nd and Pr) on the performance of Cu/Zn/Zr catalyst for CH<sub>3</sub>OH synthesis from CO<sub>2</sub>",2014
0.6,Zr,0.3,La,0.1,4.28359,Co-precipitation,400,5,230,30,3,7.71423,50.2,49.8,4.47173,20.5,,,,10.1016/j.catcom.2014.05.014,,2014
0.6,Zr,0.3,Ce,0.1,4.11415,Co-precipitation,400,5,230,30,3,7.71423,47,53,4.63984,22.8,,,,10.1016/j.catcom.2014.05.014,,2014
0.6,Zr,0.3,Nd,0.1,4.21065,Co-precipitation,400,5,230,30,3,7.71423,59.5,40.5,4.17562,19,,,,10.1016/j.catcom.2014.05.014,,2014
0.6,Zr,0.3,Pr,0.1,4.30542,Co-precipitation,400,5,230,30,3,7.71423,58,42,4.26953,19.3,,,,10.1016/j.catcom.2014.05.014,,2014
6,Al,1.4,Zr,0.6,,Co-precipitation,450,4,250,50,3,8.29405,51.2,48.8,4.79579,17.3,,,,10.1039/c2cy00481j,Preparation and activity of Cu/Zn/Al/Zr catalysts <i>via</i> hydrotalcite-containing precursors for methanol synthesis from CO<sub>2</sub> hydrogenation,2012
3,Al,0.7,Zr,0.3,3.55535,Co-precipitation,450,4,250,50,3,8.29405,49,51,4.94876,21.8,,,,10.1039/c2cy00481j,,2012
1.5,Al,0.35,Zr,0.15,3.36038,Co-precipitation,450,4,250,50,3,8.29405,45,55,5.1985,23.9,,,,10.1039/c2cy00481j,,2012
1,Al,0.233333,Zr,0.1,3.06339,Co-precipitation,450,4,250,50,3,8.29405,48.4,51.6,5.01728,22.1,,,,10.1039/c2cy00481j,,2012
0.75,Al,0.175,Zr,0.075,,Co-precipitation,450,4,250,50,3,8.29405,50.4,49.6,4.8752,20.9,,,,10.1039/c2cy00481j,,2012
0.5,Al,0.45,Zr,0.05,3.957,Co-precipitation,450,4,250,50,3,8.29405,51.2,48.8,4.94876,21.2,,,,10.1039/c2cy00481j,,2012
0.5,Al,0.45,Zr,0.05,4.06044,Co-precipitation,450,4,250,50,3,8.29405,47.5,52.5,5.14166,23,,,,10.1039/c2cy00481j,,2012
3.07767,Al,0.533981,Zr,0.23301,3.43399,Co-precipitation,450,4,250,50,3,8.92266,50,50,5.39816,17.1,,,,10.1016/j.cattod.2012.06.012,Effect of hydrotalcite-containing precursors on the performance of Cu/Zn/Al/Zr catalysts for CO<sub>2</sub> hydrogenation: Introduction of Cu<SUP>2+</SUP> at different formation stages of precursors,2012
2.12593,Al,0.585185,Zr,0.133333,3.3673,Two-step precipitation,450,4,250,50,3,8.92266,49,51,5.52545,19.8,,,,10.1016/j.cattod.2012.06.012,,2012
1.90714,Al,0.6,Zr,0.15,3.4012,Post-precipitation,450,4,250,50,3,8.92266,48.2,51.8,5.56452,20.4,,,,10.1016/j.cattod.2012.06.012,,2012
1.81457,Al,0.576159,Zr,0.0860927,3.29584,Reconstruction,450,4,250,50,3,8.92266,46.4,53.6,5.70711,22.2,,,,10.1016/j.cattod.2012.06.012,,2012
0.5,Al,0.0833333,Zr,0.0833333,,Co-precipitation,300,4,240,40,3,8.69951,41.3,58.7,5.56834,20.5,,,,10.1016/j.cattod.2009.05.018,Long carbon nanotubes intercrossed Cu/Zn/Al/Zr catalyst for CO/CO<sub>2</sub> hydrogenation to methanol/dimethyl ether,2010
0.5,Al,0.0833333,Zr,0.0833333,,Co-precipitation,300,4,240,40,3,8.69951,39.6,60.4,5.64545,21.5,,,,10.1016/j.cattod.2009.05.018,,2010
0.557078,Al,0.118721,Null,,,Co-precipitation,400,4,160,40,3,10.0774,4.29,95.71,3.75319,1.318,,,,10.1006/jcat.2002.3676,Reverse topotactic transformation of a Cu-Zn-Al catalyst during wet Pd impregnation:: Relevance for the performance in methanol synthesis from CO<sub>2</sub>/H<sub>2</sub> mixtures,2002
0.557078,Al,0.118721,Null,,,Co-precipitation,400,4,170,40,3,10.0774,6.44,93.56,5.02393,1.746,,,,10.1006/jcat.2002.3676,,2002
0.557078,Al,0.118721,Null,,3.6763,Co-precipitation,400,4,180,40,3,10.0774,9.02,90.98,4.52143,2.3,,,,10.1006/jcat.2002.3676,,2002
0.557078,Al,0.118721,Null,,3.6763,Co-precipitation,400,4,190,40,3,10.0774,12.45,87.55,4.74161,3.24,,,,10.1006/jcat.2002.3676,,2002
0.557078,Al,0.118721,Null,,3.6763,Co-precipitation,400,4,200,40,3,10.0774,15.46,84.54,5.01549,3.95,,,,10.1006/jcat.2002.3676,,2002
0.552133,Al,0.113744,Pd,0.0876777,3.6763,Co-precipitation,400,4,160,40,3,10.0774,2.22,97.78,5.311,1.113,,,,10.1006/jcat.2002.3676,,2002
0.552133,Al,0.113744,Pd,0.0876777,3.6763,Co-precipitation,400,4,170,40,3,10.0774,4.15,95.85,5.49832,1.49,,,,10.1006/jcat.2002.3676,,2002
0.552133,Al,0.113744,Pd,0.0876777,3.45947,Co-precipitation,400,4,180,40,3,10.0774,5.16,94.84,4.33409,1.994,,,,10.1006/jcat.2002.3676,,2002
0.552133,Al,0.113744,Pd,0.0876777,3.45947,Co-precipitation,400,4,190,40,3,10.0774,7.3,92.7,4.6167,2.651,,,,10.1006/jcat.2002.3676,,2002
0.552133,Al,0.113744,Pd,0.0876777,3.45947,Co-precipitation,400,4,200,40,3,10.0774,9.02,90.98,4.8888,3.155,,,,10.1006/jcat.2002.3676,,2002
0.54,Al,0.1,Pd,0.23,3.45947,Co-precipitation,400,4,160,40,3,10.0774,3.44,96.56,5.16205,0.883,,,,10.1006/jcat.2002.3676,,2002
0.54,Al,0.1,Pd,0.23,3.45947,Co-precipitation,400,4,170,40,3,10.0774,4.3,95.7,5.28986,1.13,,,,10.1006/jcat.2002.3676,,2002
0.54,Al,0.1,Pd,0.23,3.40453,Co-precipitation,400,4,180,40,3,10.0774,6.44,93.56,4.0467,1.378,,,,10.1006/jcat.2002.3676,,2002
0.54,Al,0.1,Pd,0.23,3.40453,Co-precipitation,400,4,190,40,3,10.0774,8.15,91.85,4.33723,1.856,,,,10.1006/jcat.2002.3676,,2002
0.54,Al,0.1,Pd,0.23,3.40453,Co-precipitation,400,4,200,40,3,10.0774,10.31,89.69,4.52664,2.258,,,,10.1006/jcat.2002.3676,,2002
2.28086,Null,,Null,,3.40453,Co-precipitation,,,180,60,3,9.60238,11.7,88.3,4.80974,1.74,,,,10.1023/A:1015316610657,Effect of Pd on Cu-Zn catalysts for the hydrogenation of CO<sub>2</sub> to methanol:: stabilization of Cu metal against CO<sub>2</sub> oxidation,2002
2.28086,Null,,Null,,3.40453,Co-precipitation,,,200,60,3,9.60238,20.3,79.7,4.98369,3.16,,,,10.1023/A:1015316610657,,2002
2.28086,Null,,Null,,,Co-precipitation,,,220,60,3,9.60238,29.1,70.9,4.38781,5.11,,,,10.1023/A:1015316610657,,2002
2.28086,Null,,Null,,,Co-precipitation,,,240,60,3,9.60238,41.7,58.3,4.87589,9.48,,,,10.1023/A:1015316610657,,2002
2.44378,Pd,0.0254576,Null,,,Sequential-precipitation,350,,180,60,3,9.60238,9.4,90.6,5.2354,1.8,,,,10.1023/A:1015316610657,,2002
2.44378,Pd,0.0254576,Null,,,Sequential-precipitation,350,,200,60,3,9.60238,16.6,83.4,5.65548,3.23,,,,10.1023/A:1015316610657,,2002
2.44378,Pd,0.0254576,Null,,,Sequential-precipitation,350,,220,60,3,9.60238,23.8,76.2,4.46812,5.34,,,,10.1023/A:1015316610657,,2002
2.44378,Pd,0.0254576,Null,,,Sequential-precipitation,350,,240,60,3,9.60238,33.8,66.2,4.97361,9.19,,,,10.1023/A:1015316610657,,2002
2.28044,Null,,Null,,,Co-precipitation,350,,180,60,3,9.60238,10.417,89.583,5.37677,1.7337,,,,10.1006/jcat.2002.3677,Pd-modified Cu-Zn catalysts for methanol synthesis from CO<sub>2</sub>/H<sub>2</sub> mixtures:: Catalytic structures and performance,2002
2.28044,Null,,Null,,,Co-precipitation,350,,200,60,3,9.60238,19.167,80.833,5.77871,3.071,,,,10.1006/jcat.2002.3677,,2002
2.28044,Null,,Null,,2.99773,Co-precipitation,350,,220,60,3,9.60238,27.9167,72.0833,4.40786,5.1,,,,10.1006/jcat.2002.3677,,2002
2.28044,Null,,Null,,2.99773,Co-precipitation,350,,240,60,3,9.60238,40.417,59.583,4.87705,9.452,,,,10.1006/jcat.2002.3677,,2002
2.44333,Pd,0.0464126,Null,,2.99773,Co-precipitation,350,,180,60,3,9.60238,19.584,80.416,5.23824,0.158,,,,10.1006/jcat.2002.3677,,2002
2.44333,Pd,0.0464126,Null,,2.99773,Co-precipitation,350,,200,60,3,9.60238,41.667,58.333,5.65989,0.267,,,,10.1006/jcat.2002.3677,,2002
2.44333,Pd,0.0464126,Null,,2.5177,Co-precipitation,350,,220,60,3,9.60238,60.834,39.166,2.35896,0.524,,,,10.1006/jcat.2002.3677,,2002
2.44333,Pd,0.0464126,Null,,2.5177,Co-precipitation,350,,240,60,3,9.60238,84.167,15.833,2.31247,1.325,,,,10.1006/jcat.2002.3677,,2002
2.44333,Pd,0.0464126,Null,,2.5177,Sequential-precipitation,350,,180,60,3,9.60238,7.917,92.083,2.26038,1.781,,,,10.1006/jcat.2002.3677,,2002
2.44333,Pd,0.0464126,Null,,2.5177,Sequential-precipitation,350,,200,60,3,9.60238,14.584,85.416,2.20895,3.167,,,,10.1006/jcat.2002.3677,,2002
2.44333,Pd,0.0464126,Null,,3.20275,Sequential-precipitation,350,,220,60,3,9.60238,22.489,77.511,4.50024,5.295,,,,10.1006/jcat.2002.3677,,2002
2.44333,Pd,0.0464126,Null,,3.20275,Sequential-precipitation,350,,240,60,3,9.60238,32.487,67.513,4.99135,9.152,,,,10.1006/jcat.2002.3677,,2002
,Al,,Null,,3.20275,,,,210,24,3,8.69951,33.52,66.48,5.38511,2.702,,,,10.1016/j.cep.2003.10.005,An experimental study of CO2 hydrogenation into methanol involving a zeolite membrane reactor,2004
,Al,,Null,,3.20275,,,,230,24,3,8.69951,48.11,51.89,5.7834,7.027,,,,10.1016/j.cep.2003.10.005,,2004
,Al,,Null,,,,,,250,24,3,8.69951,75.14,24.86,3.68821,14.594,,,,10.1016/j.cep.2003.10.005,,2004
,Al,,Null,,,,,,210,24,7,8.69951,27.62,72.38,4.38342,7.86,,,,10.1016/j.cep.2003.10.005,,2004
,Al,,Null,,,,,,230,24,7,8.69951,40.13,59.87,4.37847,13.103,,,,10.1016/j.cep.2003.10.005,,2004
,Al,,Null,,,,,,250,24,7,8.69951,72.517,27.483,4.13862,23.72,,,,10.1016/j.cep.2003.10.005,,2004
,Al,,Null,,,,,,210,20,3,8.47637,52,48,4.45553,5,,,,10.1016/j.cep.2003.10.005,,2004
,Al,,Null,,,,,,206,20,3,8.47637,25,75,4.27276,11.6,,,,10.1016/j.cep.2003.10.005,,2004
23.456,Null,,Null,,3.4012,Co-precipitation,350,4,160,7,9,7.78322,29.8,70.2,0.904218,1.3,,,,10.1016/j.cattod.2012.07.029,,2012
23.456,Null,,Null,,3.4012,Co-precipitation,350,4,180,7,9,7.78322,55.52,44.48,1.32442,2.79,,,,10.1016/j.cattod.2012.07.029,,2012
23.456,Null,,Null,,3.4012,Co-precipitation,350,4,200,7,9,7.78322,80,20,1.62728,8.29,,,,10.1016/j.cattod.2012.07.029,,2012
23.456,Null,,Null,,3.4012,Co-precipitation,350,4,225,7,9,7.78322,93.07,6.93,1.81482,19.14,,,,10.1016/j.cattod.2012.07.029,,2012
11.2393,Null,,Null,,3.3673,Co-precipitation,350,4,160,7,9,7.78322,0.96,99.04,1.06471,0.44,,,,10.1016/j.cattod.2012.07.029,,2012
11.2393,Null,,Null,,3.3673,Co-precipitation,350,4,180,7,9,7.78322,21.23,78.77,1.48614,1.49,,,,10.1016/j.cattod.2012.07.029,,2012
11.2393,Null,,Null,,3.3673,Co-precipitation,350,4,200,7,9,7.78322,42.45,57.55,1.81482,3.07,,,,10.1016/j.cattod.2012.07.029,,2012
11.2393,Null,,Null,,3.3673,Co-precipitation,350,4,225,7,9,7.78322,71.03,28.97,2.04898,7.59,,,,10.1016/j.cattod.2012.07.029,,2012
11.2393,Null,,Null,,3.3673,Co-precipitation,350,4,250,7,9,7.78322,89.39,10.61,1.88251,17.01,,,,10.1016/j.cattod.2012.07.029,,2012
2.93199,Null,,Null,,3.3322,Co-precipitation,350,4,140,7,9,7.78322,0.19,99.81,1.4422,0.71,,,,10.1016/j.cattod.2012.07.029,,2012
2.93199,Null,,Null,,3.3322,Co-precipitation,350,4,160,7,9,7.78322,19.99,80.01,1.89612,2.2,,,,10.1016/j.cattod.2012.07.029,,2012
2.93199,Null,,Null,,3.3322,Co-precipitation,350,4,180,7,9,7.78322,48.17,51.83,2.2628,4.94,,,,10.1016/j.cattod.2012.07.029,,2012
2.93199,Null,,Null,,3.3322,Co-precipitation,350,4,200,7,9,7.78322,73.07,26.93,2.41054,11.15,,,,10.1016/j.cattod.2012.07.029,,2012
2.93199,Null,,Null,,3.3322,Co-precipitation,350,4,225,7,9,7.78322,85.72,14.28,2.00418,18.17,,,,10.1016/j.cattod.2012.07.029,,2012
2.93199,Null,,Null,,3.3322,Co-precipitation,350,4,250,7,9,7.78322,91.84,8.16,1.50851,22.61,,,,10.1016/j.cattod.2012.07.029,,2012
2.93199,Null,,Null,,2.89037,Co-precipitation,400,4,140,7,9,7.78322,0.78,99.22,1.17248,0.71,,,,10.1016/j.cattod.2012.07.029,,2012
2.93199,Null,,Null,,2.89037,Co-precipitation,400,4,160,7,9,7.78322,12.66,87.34,1.69928,1.68,,,,10.1016/j.cattod.2012.07.029,,2012
2.93199,Null,,Null,,2.89037,Co-precipitation,400,4,180,7,9,7.78322,33.47,66.53,2.14827,3.62,,,,10.1016/j.cattod.2012.07.029,,2012
2.93199,Null,,Null,,2.89037,Co-precipitation,400,4,200,7,9,7.78322,60.82,39.18,2.37118,7.95,,,,10.1016/j.cattod.2012.07.029,,2012
2.93199,Null,,Null,,2.89037,Co-precipitation,400,4,225,7,9,7.78322,85.72,14.28,2.23858,18.17,,,,10.1016/j.cattod.2012.07.029,,2012
2.93199,Null,,Null,,2.89037,Co-precipitation,400,4,250,7,9,7.78322,94.7,5.3,1.57898,27.33,,,,10.1016/j.cattod.2012.07.029,,2012
2.93199,Null,,Null,,2.63906,Co-precipitation,450,4,140,7,9,7.78322,0.78,99.22,0.618962,0.35,,,,10.1016/j.cattod.2012.07.029,,2012
2.93199,Null,,Null,,2.63906,Co-precipitation,450,4,160,7,9,7.78322,28.58,71.42,1.24415,1.84,,,,10.1016/j.cattod.2012.07.029,,2012
2.93199,Null,,Null,,2.63906,Co-precipitation,450,4,180,7,9,7.78322,51.84,48.16,1.63705,4.13,,,,10.1016/j.cattod.2012.07.029,,2012
2.93199,Null,,Null,,2.63906,Co-precipitation,450,4,200,7,9,7.78322,78.37,21.63,2.02419,11.23,,,,10.1016/j.cattod.2012.07.029,,2012
2.93199,Null,,Null,,2.63906,Co-precipitation,450,4,225,7,9,7.78322,93.47,6.53,2.15871,21.9,,,,10.1016/j.cattod.2012.07.029,,2012
2.93199,Null,,Null,,2.63906,Co-precipitation,450,4,250,7,9,7.78322,95.92,4.08,1.59939,27.33,,,,10.1016/j.cattod.2012.07.029,,2012
2.93199,Null,,Null,,2.30259,Co-precipitation,500,4,140,7,9,7.78322,0.96,99.04,0.845868,0.8,,,,10.1016/j.cattod.2012.07.029,,2012
2.93199,Null,,Null,,2.30259,Co-precipitation,500,4,160,7,9,7.78322,10.25,89.75,1.32442,1.59,,,,10.1016/j.cattod.2012.07.029,,2012
2.93199,Null,,Null,,2.30259,Co-precipitation,500,4,180,7,9,7.78322,25.72,74.28,1.74222,2.91,,,,10.1016/j.cattod.2012.07.029,,2012
2.93199,Null,,Null,,2.30259,Co-precipitation,500,4,200,7,9,7.78322,53.47,46.53,2.04898,6.01,,,,10.1016/j.cattod.2012.07.029,,2012
2.93199,Null,,Null,,2.30259,Co-precipitation,500,4,225,7,9,7.78322,77.15,22.85,2.29253,11.77,,,,10.1016/j.cattod.2012.07.029,,2012