File: data/data_modification_for_Ea/Test_Ea_0611_version_1_cleansed.csv
Molar ratio (Zn:Cu),Promoter 1,Promoter 1 ratio (Promoter 1:Cu),Promoter 2,Promoter 2 ratio (Promoter 2:Cu),Catalyst surface area (m2/g) (LN scale),Type of sysnthesis procedure,Calcination temperature (°C),Calcination time (h),Temperature (°C),Pressure (bar),H2/CO2 ratio (-),GHSV (mL/g.h) (LN scale),Methanol based Ea (kJ/mol),Unnamed: 14,Unnamed: 15,Unnamed: 16,DOI,Name,Year
2.0,Null,,Null,,3.10459,Co-precipitation,350.0,4.0,200.0,30,3.0,10.0858,21.2562,,,,10.1016/j.apcatb.2022.122233,Boosting CO2 hydrogenation to methanol by adding trace amount of Au into Cu/ZnO catalysts,2023
2.0,Null,,Null,,3.10459,Co-precipitation,350.0,4.0,225.0,30,3.0,10.0858,21.2562,,,,10.1016/j.apcatb.2022.122233,,2023
2.0,Null,,Null,,3.10459,Co-precipitation,350.0,4.0,250.0,30,3.0,10.0858,21.2562,,,,10.1016/j.apcatb.2022.122233,,2023
2.0,Au,0.001,Null,,3.46261,Co-precipitation,350.0,4.0,200.0,30,3.0,10.0858,24.2514,,,,10.1016/j.apcatb.2022.122233,,2023
2.0,Au,0.001,Null,,3.46261,Co-precipitation,350.0,4.0,225.0,30,3.0,10.0858,24.2514,,,,10.1016/j.apcatb.2022.122233,,2023
2.0,Au,0.001,Null,,3.46261,Co-precipitation,350.0,4.0,250.0,30,3.0,10.0858,24.2514,,,,10.1016/j.apcatb.2022.122233,,2023
2.0,Au,0.005,Null,,3.46574,Co-precipitation,350.0,4.0,200.0,30,3.0,10.0858,23.0048,,,,10.1016/j.apcatb.2022.122233,,2023
2.0,Au,0.005,Null,,3.46574,Co-precipitation,350.0,4.0,225.0,30,3.0,10.0858,23.0048,,,,10.1016/j.apcatb.2022.122233,,2023
2.0,Au,0.005,Null,,3.46574,Co-precipitation,350.0,4.0,250.0,30,3.0,10.0858,23.0048,,,,10.1016/j.apcatb.2022.122233,,2023
2.0,Au,0.02,Null,,3.24259,Co-precipitation,350.0,4.0,200.0,30,3.0,10.0858,28.4034,,,,10.1016/j.apcatb.2022.122233,,2023
2.0,Au,0.02,Null,,3.24259,Co-precipitation,350.0,4.0,225.0,30,3.0,10.0858,28.4034,,,,10.1016/j.apcatb.2022.122233,,2023
2.0,Au,0.02,Null,,3.24259,Co-precipitation,350.0,4.0,250.0,30,3.0,10.0858,28.4034,,,,10.1016/j.apcatb.2022.122233,,2023
2.0,Au,0.05,Null,,3.22287,Co-precipitation,350.0,4.0,200.0,30,3.0,10.0858,38.9296,,,,10.1016/j.apcatb.2022.122233,,2023
2.0,Au,0.05,Null,,3.22287,Co-precipitation,350.0,4.0,225.0,30,3.0,10.0858,38.9296,,,,10.1016/j.apcatb.2022.122233,,2023
2.0,Au,0.05,Null,,3.22287,Co-precipitation,350.0,4.0,250.0,30,3.0,10.0858,38.9296,,,,10.1016/j.apcatb.2022.122233,,2023
0.7319,Null,,Zr,0.6616,5.09375,Co-precipitation,350.0,2.0,200.0,20,3.0,9.65503,30.5514,,,,10.1016/j.cej.2017.02.010,CO2 hydrogenation to methanol over CuO–ZnO–ZrO2–SiO2 catalysts: Effects of SiO2 contents,2017
0.7319,Null,,Zr,0.6616,5.09375,Co-precipitation,350.0,2.0,220.0,20,3.0,9.65503,30.5514,,,,10.1016/j.cej.2017.02.010,,2017
0.7319,Null,,Zr,0.6616,5.09375,Co-precipitation,350.0,2.0,240.0,20,3.0,9.65503,30.5514,,,,10.1016/j.cej.2017.02.010,,2017
0.7,Si,0.0001764,Zr,0.6545,5.16479,Co-precipitation,350.0,2.0,200.0,20,3.0,9.65503,21.6111,,,,10.1016/j.cej.2017.02.010,,2017
0.7,Si,0.0001764,Zr,0.6545,5.16479,Co-precipitation,350.0,2.0,220.0,20,3.0,9.65503,21.6111,,,,10.1016/j.cej.2017.02.010,,2017
0.7,Si,0.0001764,Zr,0.6545,5.16479,Co-precipitation,350.0,2.0,240.0,20,3.0,9.65503,21.6111,,,,10.1016/j.cej.2017.02.010,,2017
0.7384,Si,0.0004577,Zr,0.6528,5.36598,Co-precipitation,350.0,2.0,200.0,20,3.0,9.65503,27.5408,,,,10.1016/j.cej.2017.02.010,,2017
0.7384,Si,0.0004577,Zr,0.6528,5.36598,Co-precipitation,350.0,2.0,220.0,20,3.0,9.65503,27.5408,,,,10.1016/j.cej.2017.02.010,,2017
0.7384,Si,0.0004577,Zr,0.6528,5.36598,Co-precipitation,350.0,2.0,240.0,20,3.0,9.65503,27.5408,,,,10.1016/j.cej.2017.02.010,,2017
0.6948,Si,0.00065172,Zr,0.6782,5.23111,Co-precipitation,350.0,2.0,200.0,20,3.0,9.65503,33.0272,,,,10.1016/j.cej.2017.02.010,,2017
0.6948,Si,0.00065172,Zr,0.6782,5.23111,Co-precipitation,350.0,2.0,220.0,20,3.0,9.65503,33.0272,,,,10.1016/j.cej.2017.02.010,,2017
0.6948,Si,0.00065172,Zr,0.6782,5.23111,Co-precipitation,350.0,2.0,240.0,20,3.0,9.65503,33.0272,,,,10.1016/j.cej.2017.02.010,,2017
0.681,Si,0.001128,Zr,0.6473,4.97673,Co-precipitation,350.0,2.0,200.0,20,3.0,9.65503,29.1462,,,,10.1016/j.cej.2017.02.010,,2017
0.681,Si,0.001128,Zr,0.6473,4.97673,Co-precipitation,350.0,2.0,220.0,20,3.0,9.65503,29.1462,,,,10.1016/j.cej.2017.02.010,,2017
0.681,Si,0.001128,Zr,0.6473,4.97673,Co-precipitation,350.0,2.0,240.0,20,3.0,9.65503,29.1462,,,,10.1016/j.cej.2017.02.010,,2017
0.7069,Si,0.0021187,Zr,0.6416,4.80402,Co-precipitation,350.0,2.0,200.0,20,3.0,9.65503,29.9837,,,,10.1016/j.cej.2017.02.010,,2017
0.7069,Si,0.0021187,Zr,0.6416,4.80402,Co-precipitation,350.0,2.0,220.0,20,3.0,9.65503,29.9837,,,,10.1016/j.cej.2017.02.010,,2017
0.7069,Si,0.0021187,Zr,0.6416,4.80402,Co-precipitation,350.0,2.0,240.0,20,3.0,9.65503,29.9837,,,,10.1016/j.cej.2017.02.010,,2017
0.11,Null,,Null,,1.93152,Decomposition-precipitation,400.0,3.0,220.0,30,3.0,9.39266,14.6671,,,,10.1039/d1cy01836a,Dependence of copper particle size and interface on methanol and CO formation in CO2 hydrogenation over Cu@ZnO catalysts,2022
0.11,Null,,Null,,1.93152,Decomposition-precipitation,400.0,3.0,240.0,30,3.0,9.39266,14.6671,,,,10.1039/d1cy01836a,,2022
0.11,Null,,Null,,1.93152,Decomposition-precipitation,400.0,3.0,260.0,30,3.0,9.39266,14.6671,,,,10.1039/d1cy01836a,,2022
0.56,Null,,Null,,2.82731,Decomposition-precipitation,400.0,3.0,220.0,30,3.0,9.39266,25.1226,,,,10.1039/d1cy01836a,,2022
0.56,Null,,Null,,2.82731,Decomposition-precipitation,400.0,3.0,240.0,30,3.0,9.39266,26.0048,,,,10.1039/d1cy01836a,,2022
0.56,Null,,Null,,2.82731,Decomposition-precipitation,400.0,3.0,260.0,30,3.0,9.39266,26.0048,,,,10.1039/d1cy01836a,,2022
1.11,Null,,Null,,3.14415,Decomposition-precipitation,400.0,3.0,220.0,30,3.0,9.39266,41.7121,,,,10.1039/d1cy01836a,,2022
1.11,Null,,Null,,3.14415,Decomposition-precipitation,400.0,3.0,240.0,30,3.0,9.39266,35.5275,,,,10.1039/d1cy01836a,,2022
1.11,Null,,Null,,3.14415,Decomposition-precipitation,400.0,3.0,260.0,30,3.0,9.39266,35.5275,,,,10.1039/d1cy01836a,,2022
0.04,Null,,Al,0.6132,3.62966,Co-precipitation,400.0,3.0,190.0,30,3.0,9.21034,26.4041,,,,10.1039/d2nj05903g,Design of Cu/ZnO/Al2O3 catalysts with a rich Cu–ZnO interface for enhanced CO2 hydrogenation to methanol using zinc-malachite as the precursor,2023
0.04,Null,,Al,0.6132,3.62966,Co-precipitation,400.0,3.0,210.0,30,3.0,9.21034,26.4041,,,,10.1039/d2nj05903g,,2023
0.04,Null,,Al,0.6132,3.62966,Co-precipitation,400.0,3.0,230.0,30,3.0,9.21034,26.4041,,,,10.1039/d2nj05903g,,2023
0.4133,Null,,Al,0.4732,4.33205,Co-precipitation,400.0,3.0,190.0,30,3.0,9.21034,25.5797,,,,10.1039/d2nj05903g,,2023
0.4133,Null,,Al,0.4732,4.33205,Co-precipitation,400.0,3.0,210.0,30,3.0,9.21034,25.5797,,,,10.1039/d2nj05903g,,2023
0.4133,Null,,Al,0.4732,4.33205,Co-precipitation,400.0,3.0,230.0,30,3.0,9.21034,25.5797,,,,10.1039/d2nj05903g,,2023
0.4233,Null,,Al,0.52,4.06732,Co-precipitation,400.0,3.0,190.0,30,3.0,9.21034,25.5797,,,,10.1039/d2nj05903g,,2023
0.4233,Null,,Al,0.52,4.06732,Co-precipitation,400.0,3.0,210.0,30,3.0,9.21034,25.5797,,,,10.1039/d2nj05903g,,2023
0.4233,Null,,Al,0.52,4.06732,Co-precipitation,400.0,3.0,230.0,30,3.0,9.21034,25.5797,,,,10.1039/d2nj05903g,,2023
0.3124,Mg,0.4731,Al,0.748,5.2575,Co-precipitation,300.0,2.0,200.0,50,3.0,9.65503,13.8278,,,,10.1016/j.jcat.2022.01.035,Effect of surface basicity over the supported Cu-ZnO catalysts on hydrogenation of CO2 to methanol,2022
0.3124,Mg,0.4731,Al,0.748,5.2575,Co-precipitation,300.0,2.0,220.0,50,3.0,9.65503,13.8278,,,,10.1016/j.jcat.2022.01.035,,2022
0.3124,Mg,0.4731,Al,0.748,5.2575,Co-precipitation,300.0,2.0,240.0,50,3.0,9.65503,13.8278,,,,10.1016/j.jcat.2022.01.035,,2022
0.3124,Mg,0.9461,Null,,4.7185,Co-precipitation,300.0,2.0,200.0,50,3.0,9.65503,14.1574,,,,10.1016/j.jcat.2022.01.035,,2022
0.3124,Mg,0.9461,Null,,4.7185,Co-precipitation,300.0,2.0,220.0,50,3.0,9.65503,14.1574,,,,10.1016/j.jcat.2022.01.035,,2022
0.3124,Mg,0.9461,Null,,4.7185,Co-precipitation,300.0,2.0,240.0,50,3.0,9.65503,14.1574,,,,10.1016/j.jcat.2022.01.035,,2022
0.4313,Null,,Al,1.5664,4.83628,Co-precipitation,400.0,2.0,200.0,30,3.0,8.69951,26.5878,,,,10.1007/s40242-016-6130-6,Effect of Zr addition on catalytic performance of Cu-Zn-Al oxides for CO2 hydrogenation to methanol,2016
0.4313,Null,,Al,1.5664,4.83628,Co-precipitation,400.0,2.0,220.0,30,3.0,8.69951,26.5878,,,,10.1007/s40242-016-6130-6,,2016
0.4313,Null,,Al,1.5664,4.83628,Co-precipitation,400.0,2.0,240.0,30,3.0,8.69951,26.5878,,,,10.1007/s40242-016-6130-6,,2016
0.7295,Null,,Zr,0.6433,4.82028,Reverse co-precipitation,350.0,2.0,200.0,20,3.0,9.65503,25.8789,,,,10.1016/j.cej.2017.11.117,"Enhanced activity, selectivity and stability of a CuO-ZnO-ZrO2 catalyst by adding graphene oxide for CO2 hydrogenation to methanol",2018
0.7295,Null,,Zr,0.6433,4.82028,Reverse co-precipitation,350.0,2.0,220.0,20,3.0,9.65503,25.8789,,,,10.1016/j.cej.2017.11.117,,2018
0.7295,Null,,Zr,0.6433,4.82028,Reverse co-precipitation,350.0,2.0,240.0,20,3.0,9.65503,25.8789,,,,10.1016/j.cej.2017.11.117,,2018
0.7362,GO,0.03217,Zr,0.6742,4.91265,Reverse co-precipitation,350.0,2.0,200.0,20,3.0,9.65503,20.3609,,,,10.1016/j.cej.2017.11.117,,2018
0.7362,GO,0.03217,Zr,0.6742,4.91265,Reverse co-precipitation,350.0,2.0,220.0,20,3.0,9.65503,20.3609,,,,10.1016/j.cej.2017.11.117,,2018
0.7362,GO,0.03217,Zr,0.6742,4.91265,Reverse co-precipitation,350.0,2.0,240.0,20,3.0,9.65503,20.3609,,,,10.1016/j.cej.2017.11.117,,2018
0.7472,GO,0.05332,Zr,0.6763,4.97673,Reverse co-precipitation,350.0,2.0,200.0,20,3.0,9.65503,23.3322,,,,10.1016/j.cej.2017.11.117,,2018
0.7472,GO,0.05332,Zr,0.6763,4.97673,Reverse co-precipitation,350.0,2.0,220.0,20,3.0,9.65503,23.3322,,,,10.1016/j.cej.2017.11.117,,2018
0.7472,GO,0.05332,Zr,0.6763,4.97673,Reverse co-precipitation,350.0,2.0,240.0,20,3.0,9.65503,23.3322,,,,10.1016/j.cej.2017.11.117,,2018
0.7626,GO,0.1372,Zr,0.6816,4.85203,Reverse co-precipitation,350.0,2.0,200.0,20,3.0,9.65503,19.9093,,,,10.1016/j.cej.2017.11.117,,2018
0.7626,GO,0.1372,Zr,0.6816,4.85203,Reverse co-precipitation,350.0,2.0,220.0,20,3.0,9.65503,19.9093,,,,10.1016/j.cej.2017.11.117,,2018
0.7626,GO,0.1372,Zr,0.6816,4.85203,Reverse co-precipitation,350.0,2.0,240.0,20,3.0,9.65503,19.9093,,,,10.1016/j.cej.2017.11.117,,2018
0.7575,GO,0.1912,Zr,0.6727,4.65396,Reverse co-precipitation,350.0,2.0,200.0,20,3.0,9.65503,33.5615,,,,10.1016/j.cej.2017.11.117,,2018
0.7575,GO,0.1912,Zr,0.6727,4.65396,Reverse co-precipitation,350.0,2.0,220.0,20,3.0,9.65503,33.5615,,,,10.1016/j.cej.2017.11.117,,2018
0.7575,GO,0.1912,Zr,0.6727,4.65396,Reverse co-precipitation,350.0,2.0,240.0,20,3.0,9.65503,33.5615,,,,10.1016/j.cej.2017.11.117,,2018
0.784,GO,0.4648,Zr,0.6697,4.55388,Reverse co-precipitation,350.0,2.0,200.0,20,3.0,9.65503,37.8053,,,,10.1016/j.cej.2017.11.117,,2018
0.784,GO,0.4648,Zr,0.6697,4.55388,Reverse co-precipitation,350.0,2.0,220.0,20,3.0,9.65503,37.8053,,,,10.1016/j.cej.2017.11.117,,2018
0.784,GO,0.4648,Zr,0.6697,4.55388,Reverse co-precipitation,350.0,2.0,240.0,20,3.0,9.65503,37.8053,,,,10.1016/j.cej.2017.11.117,,2018
0.4286,a_SiO2,0.01428,Al,0.9524,4.54329,Solid phase grinding,330.0,3.0,180.0,43,5.0,7.6009,22.3417,,,,10.1016/j.apcatb.2023.123099,Enhancing methanol selectivity of commercial Cu/ZnO/Al2O3 catalyst in CO2 hydrogenation by surface silylation,2023
0.4286,a_SiO2,0.01428,Al,0.9524,4.54329,Solid phase grinding,330.0,3.0,210.0,43,5.0,7.6009,22.3417,,,,10.1016/j.apcatb.2023.123099,,2023
0.4286,a_SiO2,0.01428,Al,0.9524,4.54329,Solid phase grinding,330.0,3.0,225.0,43,5.0,7.6009,22.3417,,,,10.1016/j.apcatb.2023.123099,,2023
26.0,ZrO2/S,20.0,Null,,4.54329,Co-precipitation,500.0,3.0,230.0,45,3.0,9.2873,119.172,,,,10.1016/j.jcat.2020.11.039,,2021
26.0,ZrO2/S,20.0,Null,,4.54329,Co-precipitation,500.0,3.0,260.287,45,3.0,9.2873,119.172,,,,10.1016/j.jcat.2020.11.039,,2021
26.0,ZrO2/S,20.0,Null,,4.54329,Co-precipitation,500.0,3.0,290.164,45,3.0,9.2873,119.172,,,,10.1016/j.jcat.2020.11.039,,2021
13.0,ZrO2/S,20.0,Null,,4.56435,Co-precipitation,500.0,3.0,230.215,45,3.0,9.2873,116.825,,,,10.1016/j.jcat.2020.11.039,,2021
13.0,ZrO2/S,20.0,Null,,4.56435,Co-precipitation,500.0,3.0,260.0,45,3.0,9.2873,116.825,,,,10.1016/j.jcat.2020.11.039,,2021
13.0,ZrO2/S,20.0,Null,,4.56435,Co-precipitation,500.0,3.0,289.587,45,3.0,9.2873,116.825,,,,10.1016/j.jcat.2020.11.039,,2021
6.5,ZrO2/S,20.0,Null,,4.76217,Co-precipitation,500.0,3.0,230.0,45,3.0,9.2873,87.7125,,,,10.1016/j.jcat.2020.11.039,,2021
6.5,ZrO2/S,20.0,Null,,4.76217,Co-precipitation,500.0,3.0,260.202,45,3.0,9.2873,87.7125,,,,10.1016/j.jcat.2020.11.039,,2021
6.5,ZrO2/S,20.0,Null,,6.10256,Co-precipitation,500.0,3.0,290.0,45,3.0,9.2873,87.7125,,,,10.1016/j.jcat.2020.11.039,,2021
1.0,Null,,Null,,3.18221,Decomposition-precipitation,50.0,12.0,230.0,45,3.0,9.2873,59.0,,,,10.1016/j.jcat.2017.12.029,Hydrogen spillover enabled active Cu sites for methanol synthesis from CO2 hydrogenation over Pd doped CuZn catalysts,2018
1.0,Null,,Null,,3.18221,Decomposition-precipitation,50.0,12.0,250.0,45,3.0,9.2873,59.0,,,,10.1016/j.jcat.2017.12.029,,2018
1.0,Null,,Null,,3.18221,Decomposition-precipitation,50.0,12.0,270.0,45,3.0,9.2873,59.0,,,,10.1016/j.jcat.2017.12.029,,2018
1.0,Null,,Null,,3.18221,Decomposition-precipitation,50.0,12.0,290.0,45,3.0,9.2873,59.0,,,,10.1016/j.jcat.2017.12.029,,2018
1.0,Pd,0.005,Null,,2.90142,Decomposition-precipitation,50.0,12.0,230.0,45,3.0,9.2873,52.0,,,,10.1016/j.jcat.2017.12.029,,2018
1.0,Pd,0.005,Null,,2.90142,Decomposition-precipitation,50.0,12.0,250.0,45,3.0,9.2873,52.0,,,,10.1016/j.jcat.2017.12.029,,2018
1.0,Pd,0.005,Null,,2.90142,Decomposition-precipitation,50.0,12.0,270.0,45,3.0,9.2873,52.0,,,,10.1016/j.jcat.2017.12.029,,2018
1.0,Pd,0.005,Null,,2.90142,Decomposition-precipitation,50.0,12.0,290.0,45,3.0,9.2873,52.0,,,,10.1016/j.jcat.2017.12.029,,2018
1.0,Pd,0.01,Null,,2.97553,Decomposition-precipitation,50.0,12.0,230.0,45,3.0,9.2873,31.0,,,,10.1016/j.jcat.2017.12.029,,2018
1.0,Pd,0.01,Null,,2.97553,Decomposition-precipitation,50.0,12.0,250.0,45,3.0,9.2873,31.0,,,,10.1016/j.jcat.2017.12.029,,2018
1.0,Pd,0.01,Null,,2.97553,Decomposition-precipitation,50.0,12.0,270.0,45,3.0,9.2873,31.0,,,,10.1016/j.jcat.2017.12.029,,2018
1.0,Pd,0.01,Null,,2.97553,Decomposition-precipitation,50.0,12.0,290.0,45,3.0,9.2873,31.0,,,,10.1016/j.jcat.2017.12.029,,2018
1.0,Pd,0.02,Null,,2.98568,Decomposition-precipitation,50.0,12.0,230.0,45,3.0,9.2873,45.0,,,,10.1016/j.jcat.2017.12.029,,2018
1.0,Pd,0.02,Null,,2.98568,Decomposition-precipitation,50.0,12.0,250.0,45,3.0,9.2873,45.0,,,,10.1016/j.jcat.2017.12.029,,2018
1.0,Pd,0.02,Null,,2.98568,Decomposition-precipitation,50.0,12.0,270.0,45,3.0,9.2873,45.0,,,,10.1016/j.jcat.2017.12.029,,2018
1.0,Pd,0.02,Null,,2.98568,Decomposition-precipitation,50.0,12.0,290.0,45,3.0,9.2873,45.0,,,,10.1016/j.jcat.2017.12.029,,2018
1.0,Pd,0.03,Null,,2.99072,Decomposition-precipitation,50.0,12.0,230.0,45,3.0,9.2873,62.0,,,,10.1016/j.jcat.2017.12.029,,2018
1.0,Pd,0.03,Null,,2.99072,Decomposition-precipitation,50.0,12.0,250.0,45,3.0,9.2873,62.0,,,,10.1016/j.jcat.2017.12.029,,2018
1.0,Pd,0.03,Null,,2.99072,Decomposition-precipitation,50.0,12.0,270.0,45,3.0,9.2873,62.0,,,,10.1016/j.jcat.2017.12.029,,2018
1.0,Pd,0.03,Null,,2.99072,Decomposition-precipitation,50.0,12.0,290.0,45,3.0,9.2873,62.0,,,,10.1016/j.jcat.2017.12.029,,2018
1.0,Pd,0.04,Null,,3.94932,Decomposition-precipitation,50.0,12.0,230.0,45,3.0,9.2873,70.0,,,,10.1016/j.jcat.2017.12.029,,2018
1.0,Pd,0.04,Null,,3.69635,Decomposition-precipitation,50.0,12.0,250.0,45,3.0,9.2873,70.0,,,,10.1016/j.jcat.2017.12.029,,2018
1.0,Pd,0.04,Null,,4.18205,Decomposition-precipitation,50.0,12.0,270.0,45,3.0,9.2873,70.0,,,,10.1016/j.jcat.2017.12.029,,2018
1.0,Pd,0.04,Null,,4.02892,Decomposition-precipitation,50.0,12.0,290.0,45,3.0,9.2873,70.0,,,,10.1016/j.jcat.2017.12.029,,2018
2.5,Null,,Null,,1.94591,Impregnation,500.0,2.0,190.0,30,3.0,8.18869,58.2058,,,,10.1007/s11164-023-05063-x,,2023
2.5,Null,,Null,,1.94591,Impregnation,500.0,2.0,230.0,30,3.0,8.18869,58.2058,,,,10.1007/s11164-023-05063-x,,2023
2.5,Null,,Null,,1.94591,Impregnation,500.0,2.0,250.0,30,3.0,8.18869,58.2058,,,,10.1007/s11164-023-05063-x,,2023
2.5,Null,,Null,,1.94591,Impregnation,500.0,2.0,270.0,30,3.0,8.18869,58.2058,,,,10.1007/s11164-023-05063-x,,2023
2.5,Null,,Null,,1.94591,Impregnation,500.0,2.0,290.0,30,3.0,8.18869,58.2058,,,,10.1007/s11164-023-05063-x,,2023
0.75,Null,,Null,,3.05871,Co-precipitation,450.0,4.0,220.0,40,3.0,7.31322,33.3392,,,,10.1016/j.matchemphys.2018.05.028,Preparation of novel bimetallic CuZn-BTC coordination polymer nanorod for methanol synthesis from CO2 hydrogenation,2018
0.75,Null,,Null,,3.05871,Co-precipitation,450.0,4.0,230.0,40,3.0,7.31322,33.3392,,,,10.1016/j.matchemphys.2018.05.028,,2018
0.75,Null,,Null,,3.05871,Co-precipitation,450.0,4.0,240.0,40,3.0,7.31322,33.3392,,,,10.1016/j.matchemphys.2018.05.028,,2018
0.75,Null,,Null,,3.05871,Co-precipitation,450.0,4.0,250.0,40,3.0,7.31322,33.3392,,,,10.1016/j.matchemphys.2018.05.028,,2018
0.75,Null,,Null,,3.05871,Co-precipitation,450.0,4.0,260.0,40,3.0,7.31322,33.3392,,,,10.1016/j.matchemphys.2018.05.028,,2018
0.78,Null,,Null,,3.57951,MOF-derived,450.0,3.0,220.0,40,3.0,7.31322,54.194,,,,10.1016/j.matchemphys.2018.05.028,,2018
0.78,Null,,Null,,4.81224,MOF-derived,450.0,3.0,230.0,40,3.0,7.31322,54.194,,,,10.1016/j.matchemphys.2018.05.028,,2018
0.78,Null,,Null,,4.92843,MOF-derived,450.0,3.0,240.0,40,3.0,7.31322,54.194,,,,10.1016/j.matchemphys.2018.05.028,,2018
0.78,Null,,Null,,5.0121,MOF-derived,450.0,3.0,250.0,40,3.0,7.31322,54.194,,,,10.1016/j.matchemphys.2018.05.028,,2018
2.3717,Si/S,20.0,Null,,3.7013,Hydrothermal,500.0,2.0,200.0,30,3.0,9.61581,45.9396,,,, 10.1039/d2ta08830d,Self-assembly of metal–organosilicate on porous silica substrates for efficient CO2 hydrogenation to methanol,2023
2.3717,Si/S,20.0,Null,,3.7013,Hydrothermal,500.0,2.0,220.0,30,3.0,9.61581,45.9396,,,, 10.1039/d2ta08830d,,2023
2.3717,Si/S,20.0,Null,,3.7013,Hydrothermal,500.0,2.0,240.0,30,3.0,9.61581,45.9396,,,, 10.1039/d2ta08830d,,2023
2.3717,Si/S,20.0,Null,,3.7013,Hydrothermal,500.0,2.0,260.0,30,3.0,9.61581,45.9396,,,, 10.1039/d2ta08830d,,2023
1.8225,Si/S,20.0,Null,,3.7013,Hydrothermal,500.0,2.0,200.0,30,3.0,9.61581,45.7874,,,, 10.1039/d2ta08830d,,2023
1.8225,Si/S,20.0,Null,,3.7013,Hydrothermal,500.0,2.0,220.0,30,3.0,9.61581,40.6601,,,, 10.1039/d2ta08830d,,2023
1.8225,Si/S,20.0,Null,,3.7013,Hydrothermal,500.0,2.0,240.0,30,3.0,9.61581,40.6601,,,, 10.1039/d2ta08830d,,2023
2.1465,Si/S,20.0,Null,,2.45101,Hydrothermal,500.0,2.0,200.0,30,3.0,9.61581,50.2883,,,, 10.1039/d2ta08830d,,2023
2.1465,Si/S,20.0,Null,,2.45101,Hydrothermal,500.0,2.0,220.0,30,3.0,9.61581,50.2883,,,, 10.1039/d2ta08830d,,2023
2.1465,Si/S,20.0,Null,,2.45101,Hydrothermal,500.0,2.0,240.0,30,3.0,9.61581,50.2883,,,, 10.1039/d2ta08830d,,2023
2.1465,Si/S,20.0,Null,,2.41234,Hydrothermal,500.0,2.0,260.0,30,3.0,9.61581,50.2883,,,, 10.1039/d2ta08830d,,2023
1.0206,Si/S,20.0,Null,,2.41234,Hydrothermal,500.0,2.0,200.0,30,3.0,9.61581,43.6648,,,, 10.1039/d2ta08830d,,2023
1.0206,Si/S,20.0,Null,,2.41234,Hydrothermal,500.0,2.0,220.0,30,3.0,9.61581,43.6648,,,, 10.1039/d2ta08830d,,2023
1.0206,Si/S,20.0,Null,,2.41234,Hydrothermal,500.0,2.0,240.0,30,3.0,9.61581,43.6648,,,, 10.1039/d2ta08830d,,2023
1.0206,Si/S,20.0,Null,,3.22047,Hydrothermal,500.0,2.0,260.0,30,3.0,9.61581,43.6648,,,, 10.1039/d2ta08830d,,2023
0.8298,Si/S,20.0,Null,,3.22047,Hydrothermal,500.0,2.0,200.0,30,3.0,9.61581,42.4263,,,, 10.1039/d2ta08830d,,2023
0.8298,Si/S,20.0,Null,,3.22047,Hydrothermal,500.0,2.0,220.0,30,3.0,9.61581,42.4263,,,, 10.1039/d2ta08830d,,2023
0.8298,Si/S,20.0,Null,,3.22047,Hydrothermal,500.0,2.0,240.0,30,3.0,9.61581,42.4263,,,, 10.1039/d2ta08830d,,2023
0.8298,Si/S,20.0,Null,,3.22047,Hydrothermal,500.0,2.0,260.0,30,3.0,9.61581,42.4263,,,, 10.1039/d2ta08830d,,2023
0.6618,Si/S,20.0,Null,,4.30407,Hydrothermal,500.0,2.0,200.0,30,3.0,9.61581,42.7335,,,, 10.1039/d2ta08830d,,2023
0.6618,Si/S,20.0,Null,,4.68213,Hydrothermal,500.0,2.0,220.0,30,3.0,9.61581,42.7335,,,, 10.1039/d2ta08830d,,2023
0.6618,Si/S,20.0,Null,,4.68213,Hydrothermal,500.0,2.0,240.0,30,3.0,9.61581,42.7335,,,, 10.1039/d2ta08830d,,2023
0.6618,Si/S,20.0,Null,,4.58497,Hydrothermal,500.0,2.0,260.0,30,3.0,9.61581,42.7335,,,, 10.1039/d2ta08830d,,2023
0.6618,Si/S,20.0,Null,,4.33336,Hydrothermal,500.0,2.0,280.0,30,3.0,9.61581,42.7335,,,, 10.1039/d2ta08830d,,2023
1.0398,Si/S,20.0,Null,,4.33336,Hydrothermal,500.0,2.0,200.0,30,3.0,9.61581,40.2509,,,, 10.1039/d2ta08830d,,2023
1.0398,Si/S,20.0,Null,,2.44235,Hydrothermal,500.0,2.0,220.0,30,3.0,9.61581,40.2509,,,, 10.1039/d2ta08830d,,2023
1.0398,Si/S,20.0,Null,,2.21157,Hydrothermal,500.0,2.0,240.0,30,3.0,9.61581,40.2509,,,, 10.1039/d2ta08830d,,2023
1.0398,Si/S,20.0,Null,,2.28442,Hydrothermal,500.0,2.0,260.0,30,3.0,9.61581,40.2509,,,, 10.1039/d2ta08830d,,2023
1.0398,Si/S,20.0,Null,,1.98787,Hydrothermal,500.0,2.0,280.0,30,3.0,9.61581,40.2509,,,, 10.1039/d2ta08830d,,2023
1.4069,Si/S,20.0,Null,,2.45101,Hydrothermal,500.0,2.0,200.0,30,3.0,9.61581,37.2026,,,, 10.1039/d2ta08830d,,2023
1.4069,Si/S,20.0,Null,,5.35328,Hydrothermal,500.0,2.0,220.0,30,3.0,9.61581,37.2026,,,, 10.1039/d2ta08830d,,2023
1.4069,Si/S,20.0,Null,,5.35328,Hydrothermal,500.0,2.0,240.0,30,3.0,9.61581,37.2026,,,, 10.1039/d2ta08830d,,2023
1.4069,Si/S,20.0,Null,,5.35328,Hydrothermal,500.0,2.0,260.0,30,3.0,9.61581,37.2026,,,, 10.1039/d2ta08830d,,2023
1.4069,Si/S,20.0,Null,,5.35328,Hydrothermal,500.0,2.0,280.0,30,3.0,9.61581,37.2026,,,, 10.1039/d2ta08830d,,2023
1.8225,Si/S,20.0,Null,,5.35328,Hydrothermal,500.0,2.0,200.0,30,3.0,9.61581,36.695,,,, 10.1039/d2ta08830d,,2023
1.8225,Si/S,20.0,Null,,5.35328,Hydrothermal,500.0,2.0,220.0,30,3.0,9.61581,36.695,,,, 10.1039/d2ta08830d,,2023
1.8225,Si/S,20.0,Null,,5.35328,Hydrothermal,500.0,2.0,240.0,30,3.0,9.61581,36.695,,,, 10.1039/d2ta08830d,,2023
1.8225,Si/S,20.0,Null,,5.35328,Hydrothermal,500.0,2.0,260.0,30,3.0,9.61581,36.695,,,, 10.1039/d2ta08830d,,2023
1.8225,Si/S,20.0,Null,,5.35328,Hydrothermal,500.0,2.0,280.0,30,3.0,9.61581,36.695,,,, 10.1039/d2ta08830d,,2023
2.5048,Si/S,20.0,Null,,5.35328,Hydrothermal,500.0,2.0,200.0,30,3.0,9.61581,37.0653,,,, 10.1039/d2ta08830d,,2023
2.5048,Si/S,20.0,Null,,5.35328,Hydrothermal,500.0,2.0,220.0,30,3.0,9.61581,37.0653,,,, 10.1039/d2ta08830d,,2023
2.5048,Si/S,20.0,Null,,5.35328,Hydrothermal,500.0,2.0,240.0,30,3.0,9.61581,37.0653,,,, 10.1039/d2ta08830d,,2023
2.5048,Si/S,20.0,Null,,5.35328,Hydrothermal,500.0,2.0,260.0,30,3.0,9.61581,37.0653,,,, 10.1039/d2ta08830d,,2023
2.5048,Si/S,20.0,Null,,5.3799,Hydrothermal,500.0,2.0,280.0,30,3.0,9.61581,37.0653,,,, 10.1039/d2ta08830d,,2023
2.9602,Si/S,20.0,Null,,5.3799,Hydrothermal,500.0,2.0,200.0,30,3.0,9.61581,39.2367,,,, 10.1039/d2ta08830d,,2023
2.9602,Si/S,20.0,Null,,5.3799,Hydrothermal,500.0,2.0,220.0,30,3.0,9.61581,39.2367,,,, 10.1039/d2ta08830d,,2023
2.9602,Si/S,20.0,Null,,3.43399,Hydrothermal,500.0,2.0,240.0,30,3.0,9.61581,39.2367,,,, 10.1039/d2ta08830d,,2023
2.9602,Si/S,20.0,Null,,3.43399,Hydrothermal,500.0,2.0,260.0,30,3.0,9.61581,39.2367,,,, 10.1039/d2ta08830d,,2023
2.9602,Si/S,20.0,Null,,3.43399,Hydrothermal,500.0,2.0,280.0,30,3.0,9.61581,39.2367,,,, 10.1039/d2ta08830d,,2023
0.4,Null,,Zr,0.6,3.4012,Solvothermal,450.0,3.0,200.0,30,3.0,7.78322,19.9649,,,,10.1016/j.jtice.2021.03.049,Solvothermal preparation of CuO-ZnO-ZrO2 catalysts for methanol synthesis via CO2 hydrogenation,2021
0.4,Null,,Zr,0.6,3.4012,Solvothermal,450.0,3.0,220.0,30,3.0,7.78322,19.9649,,,,10.1016/j.jtice.2021.03.049,,2021
0.4,Null,,Zr,0.6,3.4012,Solvothermal,450.0,3.0,240.0,30,3.0,7.78322,19.9649,,,,10.1016/j.jtice.2021.03.049,,2021
0.2174,Null,,Null,,3.61899,MOF-derived,240.0,4.0,210.0,40,3.0,9.68034,25.0879,,,,10.1016/j.apcata.2022.118805,The regulation of Cu-ZnO interface by Cu-Zn bimetallic metal organic framework-templated strategy for enhanced CO2 hydrogenation to methanol,2022
0.2174,Null,,Null,,3.61899,MOF-derived,240.0,4.0,220.0,40,3.0,9.68034,25.0879,,,,10.1016/j.apcata.2022.118805,,2022
0.2174,Null,,Null,,3.61899,MOF-derived,240.0,4.0,230.0,40,3.0,9.68034,25.0879,,,,10.1016/j.apcata.2022.118805,,2022
0.2174,Null,,Null,,3.61899,MOF-derived,240.0,4.0,240.0,40,3.0,9.68034,25.0879,,,,10.1016/j.apcata.2022.118805,,2022
0.2272,Null,,Null,,3.66612,MOF-derived,240.0,4.0,210.0,40,3.0,9.68034,25.2521,,,,10.1016/j.apcata.2022.118805,,2022
0.2272,Null,,Null,,3.66612,MOF-derived,240.0,4.0,220.0,40,3.0,9.68034,25.2521,,,,10.1016/j.apcata.2022.118805,,2022
0.2272,Null,,Null,,3.66612,MOF-derived,240.0,4.0,230.0,40,3.0,9.68034,25.2521,,,,10.1016/j.apcata.2022.118805,,2022
0.2272,Null,,Null,,3.66612,MOF-derived,240.0,4.0,240.0,40,3.0,9.68034,25.2521,,,,10.1016/j.apcata.2022.118805,,2022
0.09615,Null,,Null,,3.66612,MOF-derived,240.0,4.0,210.0,40,3.0,9.68034,30.413,,,,10.1016/j.apcata.2022.118805,,2022
0.09615,Null,,Null,,3.65584,MOF-derived,240.0,4.0,220.0,40,3.0,9.68034,30.413,,,,10.1016/j.apcata.2022.118805,,2022
0.09615,Null,,Null,,3.65584,MOF-derived,240.0,4.0,230.0,40,3.0,9.68034,30.413,,,,10.1016/j.apcata.2022.118805,,2022
0.09615,Null,,Null,,3.65584,MOF-derived,240.0,4.0,240.0,40,3.0,9.68034,30.413,,,,10.1016/j.apcata.2022.118805,,2022
0.3333,Null,,Null,,3.51155,Co-precipitation,350.0,2.0,190.0,30,3.0,8.41183,17.0189,,,,10.1007/s10562-022-04047-7,Unraveling the Role of H2O on Cu-Based Catalyst in CO2 Hydrogenation to Methanol,2023
0.3333,Null,,Null,,3.51155,Co-precipitation,350.0,2.0,210.0,30,3.0,8.41183,17.0189,,,,10.1007/s10562-022-04047-7,,2023
0.3333,Null,,Null,,3.51155,Co-precipitation,350.0,2.0,230.0,30,3.0,8.41183,17.0189,,,,10.1007/s10562-022-04047-7,,2023
0.3333,Null,,Null,,3.51155,Co-precipitation,350.0,2.0,250.0,30,3.0,8.41183,17.0189,,,,10.1007/s10562-022-04047-7,,2023
0.4673,SiO2,3.136,Zr,0.2334,4.29046,Hydrothermal,550.0,6.0,270.0,30,3.0,7.78322,11.6435,,,,10.1016/j.jece.2021.105299,A novel in situ grown Cu-ZnO-ZrO2/HZSM-5 hybrid catalyst for CO2 hydrogenation to liquid fuels of methanol and DME,2021
0.4673,SiO2,3.136,Zr,0.2334,4.29046,Hydrothermal,550.0,6.0,290.0,30,3.0,7.78322,11.6435,,,,10.1016/j.jece.2021.105299,,2021
0.4673,SiO2,3.136,Zr,0.2334,4.29046,Hydrothermal,550.0,6.0,310.0,30,3.0,7.78322,11.6435,,,,10.1016/j.jece.2021.105299,,2021
0.4673,SiO2,3.136,Zr,3.6388,4.29046,Hydrothermal,550.0,6.0,270.0,50,5.0,7.78322,13.3026,,,,10.1016/j.jece.2021.105299,,2021
0.4673,SiO2,3.136,Zr,3.6388,4.29046,Hydrothermal,550.0,6.0,290.0,50,5.0,7.78322,13.3026,,,,10.1016/j.jece.2021.105299,,2021
0.4673,SiO2,3.136,Zr,3.6388,4.29046,Hydrothermal,550.0,6.0,310.0,50,5.0,7.78322,13.3026,,,,10.1016/j.jece.2021.105299,,2021
0.5,Null,,Zr,3.6388,4.29046,Co-precipitation,350.0,4.0,220.0,30,3.0,9.082507,14.0071,,,,10.1016/j.jcou.2018.01.028,Acidity control of zeolite functionality on activity and stability of hybrid catalysts during DME production via CO2 hydrogenation,2018
0.5,Null,,Zr,3.6388,4.29046,Co-precipitation,350.0,4.0,240.0,30,3.0,9.082507,14.0071,,,,10.1016/j.jcou.2018.01.028,,2018
0.5,Null,,Zr,5.2942,4.29046,Co-precipitation,350.0,4.0,260.0,30,3.0,9.082507,14.0071,,,,10.1016/j.jcou.2018.01.028,,2018
1.02,Null,,Null,,4.11925,Co-precipitation,400.0,4.0,200.0,30,3.0,7.78322,17.7974,,,,10.1016/j.apsusc.2015.02.122,"Effect of TiO2, ZrO2, and TiO2–ZrO2 on the performance of CuO–ZnO catalyst for CO2 hydrogenation to methanol",2015
1.02,Null,,Null,,4.43793,Co-precipitation,400.0,4.0,220.0,30,3.0,7.78322,17.7974,,,,10.1016/j.apsusc.2015.02.122,,2015
1.02,Null,,Null,,3.97406,Co-precipitation,400.0,4.0,240.0,30,3.0,7.78322,17.7974,,,,10.1016/j.apsusc.2015.02.122,,2015
1.099,TiO2/S,20.0,Null,,4.38701,Co-precipitation,400.0,4.0,200.0,30,3.0,7.78322,12.8113,,,,10.1016/j.apsusc.2015.02.122,,2015
1.099,TiO2/S,20.0,Null,,4.38701,Co-precipitation,400.0,4.0,220.0,30,3.0,7.78322,12.8113,,,,10.1016/j.apsusc.2015.02.122,,2015
1.099,TiO2/S,20.0,Null,,4.38701,Co-precipitation,400.0,4.0,240.0,30,3.0,7.78322,12.8113,,,,10.1016/j.apsusc.2015.02.122,,2015
0.9174,ZrO2/S,20.0,Null,,4.49536,Co-precipitation,400.0,4.0,200.0,30,3.0,7.78322,12.3047,,,,10.1016/j.apsusc.2015.02.122,,2015
0.9174,ZrO2/S,20.0,Null,,4.49536,Co-precipitation,400.0,4.0,220.0,30,3.0,7.78322,12.3047,,,,10.1016/j.apsusc.2015.02.122,,2015
0.9174,ZrO2/S,20.0,Null,,4.49536,Co-precipitation,400.0,4.0,240.0,30,3.0,7.78322,12.3047,,,,10.1016/j.apsusc.2015.02.122,,2015
1.01,TiO2/S,20.0,Zr,0.1742,4.77068,Co-precipitation,400.0,4.0,200.0,30,3.0,7.78322,12.1361,,,,10.1016/j.apsusc.2015.02.122,,2015
1.01,TiO2/S,20.0,Zr,0.1742,4.77068,Co-precipitation,400.0,4.0,220.0,30,3.0,7.78322,12.1361,,,,10.1016/j.apsusc.2015.02.122,,2015
1.01,Ti,3.6388,Zr,0.1742,4.77068,Co-precipitation,400.0,4.0,240.0,30,3.0,7.78322,12.1361,,,,10.1016/j.apsusc.2015.02.122,,2015
1.2042,Au,0.0079467,Al,7.2776,4.87672,Co-precipitation,500.0,5.0,180.0,25,2.8,8.88184,27.4039,,,,10.1166/jnn.2017.13359,Effect of Gold Nanoparticles Addition to CuO–ZnO/Al2O3 Catalyst in Conversion of Carbon Dioxide to Methanol,2017
1.2042,Au,0.0079467,Al,7.2776,4.87672,Co-precipitation,500.0,5.0,220.0,25,2.8,8.88184,27.4039,,,,10.1166/jnn.2017.13359,,2017
1.2042,Au,0.0079467,Al,7.2776,4.87672,Co-precipitation,500.0,5.0,250.0,25,2.8,8.88184,27.4039,,,,10.1166/jnn.2017.13359,,2017
0.3281,Null,,Zr,10.2316,4.54966,Reverse co-precipitation,300.0,1.0,180.0,1,3.0,9.16952,37.5019,,,,10.1016/j.jcat.2012.12.019,Effects of oxide carriers on surface functionality and process performance of the Cu–ZnO system in the synthesis of methanol via CO2 hydrogenation,2013
0.3281,Null,,Zr,10.2316,4.54966,Reverse co-precipitation,300.0,1.0,200.0,1,3.0,9.16952,37.5019,,,,10.1016/j.jcat.2012.12.019,,2013
0.3281,Null,,Zr,10.2316,4.54966,Reverse co-precipitation,300.0,1.0,220.0,1,3.0,9.16952,37.5019,,,,10.1016/j.jcat.2012.12.019,,2013
0.3281,Null,,Zr,10.2316,4.54966,Reverse co-precipitation,300.0,1.0,180.0,30,3.0,9.16952,33.9046,,,,10.1016/j.jcat.2012.12.019,,2013
0.3281,Null,,Zr,3.2442,4.62104,Reverse co-precipitation,300.0,1.0,200.0,30,3.0,9.16952,33.9046,,,,10.1016/j.jcat.2012.12.019,,2013
0.3281,Null,,Zr,3.2442,4.62104,Reverse co-precipitation,300.0,1.0,220.0,30,3.0,9.16952,33.9046,,,,10.1016/j.jcat.2012.12.019,,2013
0.3281,Null,,Zr,3.2442,4.62104,Reverse co-precipitation,300.0,1.0,180.0,50,3.0,9.16952,36.7071,,,,10.1016/j.jcat.2012.12.019,,2013
0.3281,Null,,Zr,3.2442,4.62104,Reverse co-precipitation,300.0,1.0,200.0,50,3.0,9.16952,36.7071,,,,10.1016/j.jcat.2012.12.019,,2013
0.3281,Null,,Zr,3.2442,4.95794,Reverse co-precipitation,300.0,1.0,220.0,50,3.0,9.16952,36.7071,,,,10.1016/j.jcat.2012.12.019,,2013
0.3281,Null,,Zr,4.1358,4.95794,Reverse co-precipitation,300.0,1.0,180.0,30,3.0,9.86267,20.1536,,,,10.1016/j.jcat.2012.12.019,,2013
0.3281,Null,,Zr,4.1358,4.95794,Reverse co-precipitation,300.0,1.0,200.0,30,3.0,9.86267,20.1536,,,,10.1016/j.jcat.2012.12.019,,2013
0.3281,Null,,Zr,4.1358,4.86676,Reverse co-precipitation,300.0,1.0,220.0,30,3.0,9.86267,20.1536,,,,10.1016/j.jcat.2012.12.019,,2013
0.3281,Null,,Zr,3.9666,4.86676,Reverse co-precipitation,300.0,1.0,240.0,30,3.0,9.86267,20.1536,,,,10.1016/j.jcat.2012.12.019,,2013
0.3281,Null,,Zr,3.9666,4.86676,Reverse co-precipitation,300.0,1.0,180.0,50,3.0,9.86267,30.5294,,,,10.1016/j.jcat.2012.12.019,,2013
0.3281,Null,,Zr,3.9666,4.86676,Reverse co-precipitation,300.0,1.0,200.0,50,3.0,9.86267,30.5294,,,,10.1016/j.jcat.2012.12.019,,2013
0.3281,Null,,Zr,3.9666,4.86676,Reverse co-precipitation,300.0,1.0,220.0,50,3.0,9.86267,30.5294,,,,10.1016/j.jcat.2012.12.019,,2013
0.3281,Null,,Zr,3.9666,4.86676,Reverse co-precipitation,300.0,1.0,240.0,50,3.0,9.86267,30.5294,,,,10.1016/j.jcat.2012.12.019,,2013
0.3281,Null,,Zr,3.4834,4.82671,Reverse co-precipitation,300.0,1.0,180.0,30,3.0,10.5866,22.3446,,,,10.1016/j.jcat.2012.12.019,,2013
0.3281,Null,,Zr,3.4834,4.82671,Reverse co-precipitation,300.0,1.0,200.0,30,3.0,10.5866,22.3446,,,,10.1016/j.jcat.2012.12.019,,2013
0.3281,Null,,Zr,3.4834,4.82671,Reverse co-precipitation,300.0,1.0,220.0,30,3.0,10.5866,22.3446,,,,10.1016/j.jcat.2012.12.019,,2013
0.3281,Null,,Zr,3.4834,4.82671,Reverse co-precipitation,300.0,1.0,240.0,30,3.0,10.5866,22.3446,,,,10.1016/j.jcat.2012.12.019,,2013
0.3281,Null,,Zr,3.4834,4.82671,Reverse co-precipitation,300.0,1.0,180.0,50,3.0,10.5866,25.104,,,,10.1016/j.jcat.2012.12.019,,2013
0.3281,Null,,Zr,0.3334,4.70048,Reverse co-precipitation,300.0,1.0,200.0,50,3.0,10.5866,25.104,,,,10.1016/j.jcat.2012.12.019,,2013
0.3281,Null,,Zr,0.4,4.70048,Reverse co-precipitation,300.0,1.0,220.0,50,3.0,10.5866,25.104,,,,10.1016/j.jcat.2012.12.019,,2013
0.3281,Null,,Zr,0.388,4.70048,Reverse co-precipitation,300.0,1.0,240.0,30,3.0,10.5866,25.104,,,,10.1016/j.jcat.2012.12.019,,2013
0.3281,Null,,Zr,0.3334,4.70048,Reverse co-precipitation,300.0,1.0,180.0,30,3.0,11.0021,26.2427,,,,10.1016/j.jcat.2012.12.019,,2013
0.3281,Null,,Zr,0.3334,4.86676,Reverse co-precipitation,300.0,1.0,200.0,30,3.0,11.0021,26.2427,,,,10.1016/j.jcat.2012.12.019,,2013
0.3281,Null,,Zr,0.3334,4.86676,Reverse co-precipitation,300.0,1.0,220.0,30,3.0,11.0021,26.2427,,,,10.1016/j.jcat.2012.12.019,,2013
0.3281,Null,,Zr,0.3334,4.86676,Reverse co-precipitation,300.0,1.0,240.0,30,3.0,11.0021,26.2427,,,,10.1016/j.jcat.2012.12.019,,2013
0.3281,Null,,Zr,0.3334,4.86676,Reverse co-precipitation,300.0,1.0,180.0,50,3.0,11.0021,27.0149,,,,10.1016/j.jcat.2012.12.019,,2013
0.3281,Null,,Zr,0.3334,4.86676,Reverse co-precipitation,300.0,1.0,200.0,50,3.0,11.0021,27.0149,,,,10.1016/j.jcat.2012.12.019,,2013
0.3281,Null,,Zr,0.3334,4.86676,Reverse co-precipitation,300.0,1.0,220.0,50,3.0,11.0021,27.0149,,,,10.1016/j.jcat.2012.12.019,,2013
0.3281,Null,,Zr,0.3334,4.86676,Reverse co-precipitation,300.0,1.0,240.0,30,3.0,11.0021,27.0149,,,,10.1016/j.jcat.2012.12.019,,2013
0.75,C,0.3334,Null,,4.86676,Plasma,,,230.0,40,3.0,8.69951,52.7046,,,,10.1021/acs.iecr.9b06996,Enhanced Activity of Cu/ZnO/C Catalysts Prepared by Cold Plasma for CO2 Hydrogenation to Methanol,2020
0.75,C,0.3334,Null,,4.86676,Plasma,,,240.0,40,3.0,8.69951,52.7046,,,,10.1021/acs.iecr.9b06996,,2020
0.75,C,0.3334,Null,,4.86676,Plasma,,,250.0,40,3.0,8.69951,52.7046,,,,10.1021/acs.iecr.9b06996,,2020
0.75,C,0.3334,Null,,4.86676,Plasma,,,260.0,40,3.0,8.69951,52.7046,,,,10.1021/acs.iecr.9b06996,,2020
0.75,C,0.3334,Null,,4.86676,Impregnation,400.0,3.0,230.0,40,3.0,8.69951,7.81736,,,,10.1021/acs.iecr.9b06996,,2020
0.75,C,0.2448,Null,,4.86676,Impregnation,400.0,3.0,240.0,40,3.0,8.69951,7.81736,,,,10.1021/acs.iecr.9b06996,,2020
0.75,C,0.2448,Null,,4.86676,Impregnation,400.0,3.0,250.0,40,3.0,8.69951,7.81736,,,,10.1021/acs.iecr.9b06996,,2020
0.75,C,0.2448,Null,,4.86676,Impregnation,400.0,3.0,260.0,40,3.0,8.69951,7.81736,,,,10.1021/acs.iecr.9b06996,,2020
0.75,C,0.2448,Null,,4.86676,Impregnation,400.0,3.0,270.0,40,3.0,8.69951,7.81736,,,,10.1021/acs.iecr.9b06996,,2020
0.5217,Null,,Al,0.492,4.85203,MOF-derived,500.0,6.0,200.0,30,3.0,10.3735,39.0,,,,10.1016/j.jcou.2019.05.021,Hierarchical sheet-like Cu/Zn/Al nanocatalysts derived from LDH/MOF composites for CO2 hydrogenation to methanol,2019
0.5217,Null,,Al,0.492,4.85203,MOF-derived,500.0,6.0,225.0,30,3.0,10.3735,39.0,,,,10.1016/j.jcou.2019.05.021,,2019
0.5217,Null,,Al,0.492,4.85203,MOF-derived,500.0,6.0,250.0,30,3.0,10.3735,39.0,,,,10.1016/j.jcou.2019.05.021,,2019
0.5217,Null,,Al,0.492,4.85203,MOF-derived,500.0,6.0,275.0,30,3.0,10.3735,39.0,,,,10.1016/j.jcou.2019.05.021,,2019
0.5217,Null,,Al,0.492,4.85203,MOF-derived,500.0,6.0,300.0,30,3.0,10.3735,39.0,,,,10.1016/j.jcou.2019.05.021,,2019
0.5216,Null,,Al,0.492,4.85203,MOF-derived,500.0,6.0,200.0,30,3.0,10.3735,39.0,,,,10.1016/j.jcou.2019.05.021,,2019
0.5216,Null,,Al,0.492,4.85203,MOF-derived,500.0,6.0,225.0,30,3.0,10.3735,39.0,,,,10.1016/j.jcou.2019.05.021,,2019
0.5216,Null,,Al,0.492,4.85203,MOF-derived,500.0,6.0,250.0,30,3.0,10.3735,39.0,,,,10.1016/j.jcou.2019.05.021,,2019
0.5216,Null,,Al,0.492,4.85203,MOF-derived,500.0,6.0,275.0,30,3.0,10.3735,39.0,,,,10.1016/j.jcou.2019.05.021,,2019
0.5216,Null,,Al,0.492,4.85203,MOF-derived,500.0,6.0,300.0,30,3.0,10.3735,39.0,,,,10.1016/j.jcou.2019.05.021,,2019
0.5622,Null,,Al,0.492,2.19722,MOF-derived,350.0,3.0,200.0,30,3.0,10.3735,35.0,,,,10.1016/j.jcou.2019.05.021,,2019
0.5622,Null,,Al,0.492,2.19722,MOF-derived,350.0,3.0,225.0,30,3.0,10.3735,35.0,,,,10.1016/j.jcou.2019.05.021,,2019
0.5622,Null,,Al,0.3852,2.19722,MOF-derived,350.0,3.0,250.0,30,3.0,10.3735,35.0,,,,10.1016/j.jcou.2019.05.021,,2019
0.5622,Null,,Al,0.3852,2.19722,MOF-derived,350.0,3.0,275.0,30,3.0,10.3735,35.0,,,,10.1016/j.jcou.2019.05.021,,2019
0.5622,Null,,Al,0.3852,2.19722,MOF-derived,350.0,3.0,300.0,30,3.0,10.3735,35.0,,,,10.1016/j.jcou.2019.05.021,,2019
0.5622,Null,,Al,0.3852,3.43399,MOF-derived,350.0,3.0,200.0,30,3.0,10.3735,32.0,,,,10.1016/j.jcou.2019.05.021,,2019
0.5622,Null,,Al,0.4124,3.43399,MOF-derived,350.0,3.0,225.0,30,3.0,10.3735,32.0,,,,10.1016/j.jcou.2019.05.021,,2019
0.5622,Null,,Al,0.4124,3.43399,MOF-derived,350.0,3.0,250.0,30,3.0,10.3735,32.0,,,,10.1016/j.jcou.2019.05.021,,2019
0.5622,Null,,Al,0.4124,3.43399,MOF-derived,350.0,3.0,275.0,30,3.0,10.3735,32.0,,,,10.1016/j.jcou.2019.05.021,,2019
0.5622,Null,,Al,0.4124,2.56495,MOF-derived,350.0,3.0,300.0,30,3.0,10.3735,32.0,,,,10.1016/j.jcou.2019.05.021,,2019
0.3176,Null,,Al,0.4124,2.56495,MOF-derived,500.0,6.0,200.0,30,3.0,10.3735,41.5261,,,,10.1016/j.jcou.2019.05.021,,2019
0.3176,Null,,Al,0.4124,2.56495,MOF-derived,500.0,6.0,225.0,30,3.0,10.3735,41.5261,,,,10.1016/j.jcou.2019.05.021,,2019
0.3176,Null,,Al,0.4124,2.56495,MOF-derived,500.0,6.0,250.0,30,3.0,10.3735,41.5261,,,,10.1016/j.jcou.2019.05.021,,2019
0.5582,Null,,Al,0.4124,3.71357,MOF-derived,500.0,6.0,200.0,30,3.0,10.3735,39.4702,,,,10.1016/j.jcou.2019.05.021,,2019
0.5582,Null,,Al,0.3334,3.71357,MOF-derived,500.0,6.0,225.0,30,3.0,10.3735,39.4702,,,,10.1016/j.jcou.2019.05.021,,2019
0.5582,Null,,Al,0.104,2.83321,MOF-derived,500.0,6.0,250.0,30,3.0,10.3735,39.4702,,,,10.1016/j.jcou.2019.05.021,,2019
0.5582,Null,,Al,0.224,2.83321,MOF-derived,500.0,6.0,275.0,30,3.0,10.3735,39.4702,,,,10.1016/j.jcou.2019.05.021,,2019
0.5216,Null,,Al,0.3334,2.83321,MOF-derived,500.0,6.0,200.0,30,3.0,10.3735,40.9278,,,,10.1016/j.jcou.2019.05.021,,2019
0.5216,Null,,Al,0.3334,4.32678,MOF-derived,500.0,6.0,225.0,30,3.0,10.3735,40.9278,,,,10.1016/j.jcou.2019.05.021,,2019
0.5216,Null,,Al,0.3334,4.06389,MOF-derived,500.0,6.0,250.0,30,3.0,10.3735,40.9278,,,,10.1016/j.jcou.2019.05.021,,2019
2.106,Null,,Al,0.6,4.87061,MOF-derived,500.0,6.0,200.0,30,3.0,10.3735,42.8965,,,,10.1016/j.jcou.2019.05.021,,2019
2.106,Null,,Al,0.6,4.87061,MOF-derived,500.0,6.0,225.0,30,3.0,10.3735,42.8965,,,,10.1016/j.jcou.2019.05.021,,2019
2.106,Null,,Al,0.6,4.87061,MOF-derived,500.0,6.0,250.0,30,3.0,10.3735,42.8965,,,,10.1016/j.jcou.2019.05.021,,2019
0.1788,Null,,Al,0.6,4.87061,MOF-derived,350.0,3.0,200.0,30,3.0,10.3735,49.353,,,,10.1016/j.jcou.2019.05.021,,2019
0.1788,Null,,Al,0.6,4.87061,MOF-derived,350.0,3.0,225.0,30,3.0,10.3735,49.353,,,,10.1016/j.jcou.2019.05.021,,2019
0.1788,Null,,Al,0.6,4.87061,MOF-derived,350.0,3.0,250.0,30,3.0,10.3735,49.353,,,,10.1016/j.jcou.2019.05.021,,2019
0.3118,Null,,Al,0.6,4.87061,MOF-derived,350.0,3.0,200.0,30,3.0,10.3735,33.8986,,,,10.1016/j.jcou.2019.05.021,,2019
0.3118,Null,,Al,0.6,4.94321,MOF-derived,350.0,3.0,225.0,30,3.0,10.3735,33.8986,,,,10.1016/j.jcou.2019.05.021,,2019
0.3118,Null,,Al,0.69,4.94321,MOF-derived,350.0,3.0,250.0,30,3.0,10.3735,33.8986,,,,10.1016/j.jcou.2019.05.021,,2019
0.5622,Null,,Al,0.69,4.94321,MOF-derived,350.0,3.0,200.0,30,3.0,10.3735,31.7306,,,,10.1016/j.jcou.2019.05.021,,2019
0.5622,Null,,Al,0.69,4.82847,MOF-derived,350.0,3.0,225.0,30,3.0,10.3735,31.7306,,,,10.1016/j.jcou.2019.05.021,,2019
0.5622,Null,,Al,0.69,4.82847,MOF-derived,350.0,3.0,250.0,30,3.0,10.3735,31.7306,,,,10.1016/j.jcou.2019.05.021,,2019
0.6691,Null,,Al,0.69,4.82847,MOF-derived,350.0,3.0,200.0,30,3.0,10.3735,32.0329,,,,10.1016/j.jcou.2019.05.021,,2019
0.6691,Null,,Al,0.69,3.72569,MOF-derived,350.0,3.0,225.0,30,3.0,10.3735,32.0329,,,,10.1016/j.jcou.2019.05.021,,2019
0.6691,Null,,Al,0.5716,3.72569,MOF-derived,350.0,3.0,250.0,30,3.0,10.3735,32.0329,,,,10.1016/j.jcou.2019.05.021,,2019
0.4545,Null,,Al,0.3334,2.65697,Co-precipitation,360.0,4.0,220.0,28,3.0,7.32975,19.6309,,,,10.1016/j.fuel.2018.11.105,Highly active and selective Cu-ZnO based catalyst for methanol and dimethyl ether synthesis via CO2 hydrogenation,2019
[...]
0.3696,Null,,Null,,3.87078,MOF-derived,500.0,6.0,260.0,45,3.0,9.98045,41.3813,,,,10.1039/c8cy02546k,,2019
0.3696,Null,,Null,,3.87078,MOF-derived,500.0,6.0,270.0,45,3.0,9.98045,41.3813,,,,10.1039/c8cy02546k,,2019
0.24876,Null,,Null,,3.84951,MOF-derived,500.0,6.0,220.0,45,3.0,9.98045,39.1151,,,,10.1039/c8cy02546k,,2019
0.24876,Null,,Null,,3.84951,MOF-derived,500.0,6.0,240.0,45,3.0,9.98045,39.1151,,,,10.1039/c8cy02546k,,2019
0.24876,Null,,Null,,3.84951,MOF-derived,500.0,6.0,260.0,45,3.0,9.98045,39.1151,,,,10.1039/c8cy02546k,,2019
0.4138,Null,,Null,,3.55763,MOF-derived,500.0,6.0,220.0,45,3.0,9.98045,37.6046,,,,10.1039/c8cy02546k,,2019
0.4138,Null,,Null,,3.55763,MOF-derived,500.0,6.0,240.0,45,3.0,9.98045,37.6046,,,,10.1039/c8cy02546k,,2019
0.4138,Null,,Null,,3.55763,MOF-derived,500.0,6.0,260.0,45,3.0,9.98045,37.6046,,,,10.1039/c8cy02546k,,2019
0.4138,Null,,Null,,3.55763,MOF-derived,500.0,6.0,270.0,45,3.0,9.98045,37.6046,,,,10.1039/c8cy02546k,,2019
0.42686,Null,,Null,,3.90922,MOF-derived,500.0,6.0,220.0,45,3.0,9.98045,34.1612,,,,10.1039/c8cy02546k,,2019
0.42686,Null,,Null,,3.90922,MOF-derived,500.0,6.0,240.0,45,3.0,9.98045,34.1612,,,,10.1039/c8cy02546k,,2019
0.42686,Null,,Null,,3.90922,MOF-derived,500.0,6.0,260.0,45,3.0,9.98045,34.1612,,,,10.1039/c8cy02546k,,2019
0.48,Null,,Al,0.17,5.0626,Co-precipitation,350.0,12.0,170.0,1,3.0,8.29405,12.1134,,,,10.9767/bcrec.14.3.3451.604-613,,2019
0.48,Null,,Al,0.17,5.0626,Co-precipitation,350.0,12.0,190.0,1,3.0,8.29405,12.1134,,,,10.9767/bcrec.14.3.3451.604-613,,2019
0.48,Null,,Al,0.17,5.0626,Co-precipitation,350.0,12.0,210.0,1,3.0,8.29405,12.1134,,,,10.9767/bcrec.14.3.3451.604-613,,2019
0.48,Null,,Al,0.17,4.8828,Co-precipitation,350.0,12.0,230.0,1,3.0,8.29405,12.1134,,,,10.9767/bcrec.14.3.3451.604-613,,2019
0.48,Null,,Al,0.17,4.8828,Co-precipitation,350.0,12.0,250.0,1,3.0,8.29405,12.1134,,,,10.9767/bcrec.14.3.3451.604-613,,2019
6.91,Null,,Null,,3.55535,Electroless deposition,23.0,0.0,200.0,20,3.0,8.69951,19.2498,,,,10.1007/s10562-019-02717-7,Synthesis of a Cu/ZnO Nanocomposite by Electroless Plating for the Catalytic Conversion of CO2 to Methanol,2019
6.91,Null,,Null,,3.36038,Electroless deposition,23.0,0.0,220.0,20,3.0,8.69951,19.2498,,,,10.1007/s10562-019-02717-7,,2019
6.91,Null,,Null,,3.06339,Electroless deposition,23.0,0.0,240.0,20,3.0,8.69951,19.2498,,,,10.1007/s10562-019-02717-7,,2019
6.91,Null,,Null,,3.3673,Electroless deposition,23.0,0.0,200.0,20,3.0,9.21034,33.7257,,,,10.1007/s10562-019-02717-7,,2019
6.91,Null,,Null,,3.4012,Electroless deposition,23.0,0.0,220.0,20,3.0,9.21034,33.7257,,,,10.1007/s10562-019-02717-7,,2019
6.91,Null,,Null,,3.29584,Electroless deposition,23.0,0.0,240.0,20,3.0,9.21034,33.7257,,,,10.1007/s10562-019-02717-7,,2019
0.5,Mg,0.05,Zr,0.45,5.24544,Impregnation,600.0,6.0,230.0,20,3.0,8.37101,60.3543,,,,10.1016/j.jiec.2015.03.001,,2015
0.5,Mg,0.05,Zr,0.45,5.24544,Impregnation,600.0,6.0,250.0,20,3.0,8.37101,60.3543,,,,10.1016/j.jiec.2015.03.001,,2015
0.5,Mg,0.05,Zr,0.45,5.24544,Impregnation,600.0,6.0,270.0,20,3.0,8.37101,60.3543,,,,10.1016/j.jiec.2015.03.001,,2015
0.25,Au,0.006,Al,0.25,3.13549,Deposition-precipitation ,350.0,12.0,200.0,40,6.0,8.85367,30.3859,,,,10.1016/j.apcata.2015.01.036,Studies on Au/Cu-Zn-Al catalyst for methanol synthesis from CO2,2015
0.25,Au,0.006,Al,0.25,3.13549,Deposition-precipitation ,350.0,12.0,220.0,40,6.0,8.85367,30.3859,,,,10.1016/j.apcata.2015.01.036,,2015
0.25,Au,0.006,Al,0.25,3.13549,Deposition-precipitation ,350.0,12.0,240.0,40,6.0,8.85367,30.3859,,,,10.1016/j.apcata.2015.01.036,,2015
0.25,Au,0.006,Al,0.25,3.13549,Deposition-precipitation ,350.0,12.0,260.0,40,6.0,8.85367,30.3859,,,,10.1016/j.apcata.2015.01.036,,2015
0.14,Null,,Null,,2.67415,Chitosan-assisted co-precipitation,450.0,2.0,180.0,20,3.0,8.47637,20.9211,,,,10.1016/j.fuproc.2013.04.024,CO2 hydrogenation to methanol over Cu/ZnO nanocatalysts prepared via a chitosan-assisted co-precipitation method,2013
0.14,Null,,Null,,2.67415,Chitosan-assisted co-precipitation,450.0,2.0,200.0,20,3.0,8.47637,20.9211,,,,10.1016/j.fuproc.2013.04.024,,2013
0.14,Null,,Null,,2.67415,Chitosan-assisted co-precipitation,450.0,2.0,220.0,20,3.0,8.47637,20.9211,,,,10.1016/j.fuproc.2013.04.024,,2013
0.14,Null,,Null,,2.67415,Chitosan-assisted co-precipitation,450.0,2.0,240.0,20,3.0,8.47637,20.9211,,,,10.1016/j.fuproc.2013.04.024,,2013
0.93,Null,,Null,,3.83298,Chitosan-assisted co-precipitation,450.0,2.0,180.0,20,3.0,8.47637,20.9688,,,,10.1016/j.fuproc.2013.04.024,,2013
0.93,Null,,Null,,3.83298,Chitosan-assisted co-precipitation,450.0,2.0,200.0,20,3.0,8.47637,20.9688,,,,10.1016/j.fuproc.2013.04.024,,2013
0.93,Null,,Null,,3.83298,Chitosan-assisted co-precipitation,450.0,2.0,220.0,20,3.0,8.47637,20.9688,,,,10.1016/j.fuproc.2013.04.024,,2013
0.93,Null,,Null,,3.83298,Chitosan-assisted co-precipitation,450.0,2.0,240.0,20,3.0,8.47637,20.9688,,,,10.1016/j.fuproc.2013.04.024,,2013
0.85,Null,,Null,,3.54096,Chitosan-assisted co-precipitation,450.0,2.0,180.0,20,3.0,8.47637,19.1328,,,,10.1016/j.fuproc.2013.04.024,,2013
0.85,Null,,Null,,3.54096,Chitosan-assisted co-precipitation,450.0,2.0,200.0,20,3.0,8.47637,19.1328,,,,10.1016/j.fuproc.2013.04.024,,2013
0.85,Null,,Null,,3.54096,Chitosan-assisted co-precipitation,450.0,2.0,220.0,20,3.0,8.47637,19.1328,,,,10.1016/j.fuproc.2013.04.024,,2013
0.85,Null,,Null,,3.54096,Chitosan-assisted co-precipitation,450.0,2.0,240.0,20,3.0,8.47637,19.1328,,,,10.1016/j.fuproc.2013.04.024,,2013
0.75,Null,,Null,,3.34639,Chitosan-assisted co-precipitation,450.0,2.0,180.0,20,3.0,8.47637,19.8795,,,,10.1016/j.fuproc.2013.04.024,,2013
0.75,Null,,Null,,3.34639,Chitosan-assisted co-precipitation,450.0,2.0,200.0,20,3.0,8.47637,19.8795,,,,10.1016/j.fuproc.2013.04.024,,2013
0.75,Null,,Null,,3.34639,Chitosan-assisted co-precipitation,450.0,2.0,220.0,20,3.0,8.47637,19.8795,,,,10.1016/j.fuproc.2013.04.024,,2013
0.75,Null,,Null,,3.34639,Chitosan-assisted co-precipitation,450.0,2.0,240.0,20,3.0,8.47637,19.8795,,,,10.1016/j.fuproc.2013.04.024,,2013
0.4854,Null,,Al,0.4757,3.66356,Co-precipitation,500.0,4.0,230.0,50,3.0,9.39266,27.6583,,,,10.1016/j.jcou.2013.06.003,Influence of fluorine on the performance of fluorine-modified Cu/Zn/Al catalysts for CO2 hydrogenation to methanol,2013
0.4854,Null,,Al,0.4757,3.66356,Co-precipitation,500.0,4.0,250.0,50,3.0,9.39266,27.6583,,,,10.1016/j.jcou.2013.06.003,,2013
0.4854,Null,,Al,0.4757,3.66356,Co-precipitation,500.0,4.0,270.0,50,3.0,9.39266,27.6583,,,,10.1016/j.jcou.2013.06.003,,2013
0.4785,F,0.0574,Al,0.464,3.4012,Memory effect,500.0,4.0,230.0,50,3.0,9.39266,29.1478,,,,10.1016/j.jcou.2013.06.003,,2013
0.4785,F,0.0574,Al,0.464,3.4012,Memory effect,500.0,4.0,250.0,50,3.0,9.39266,29.1478,,,,10.1016/j.jcou.2013.06.003,,2013
0.4785,F,0.0574,Al,0.464,3.4012,Memory effect,500.0,4.0,270.0,50,3.0,9.39266,29.1478,,,,10.1016/j.jcou.2013.06.003,,2013
0.486,Null,,Al,0.475,3.82864,Co-precipitation,500.0,4.0,230.0,50,3.0,9.39266,23.3485,,,,10.1016/j.apcata.2013.09.026,"Influence of modifier (Mn, La, Ce, Zr and Y) on the performance of Cu/Zn/Al catalysts via hydrotalcite-like precursors for CO2 hydrogenation to methanol",2013
0.486,Null,,Al,0.475,3.82864,Co-precipitation,500.0,4.0,250.0,50,3.0,9.39266,23.3485,,,,10.1016/j.apcata.2013.09.026,,2013
0.486,Null,,Al,0.475,3.82864,Co-precipitation,500.0,4.0,270.0,50,3.0,9.39266,23.3485,,,,10.1016/j.apcata.2013.09.026,,2013
0.458,Mn,0.0485,Al,0.435,3.8712,Co-precipitation,500.0,4.0,230.0,50,3.0,9.39266,16.7758,,,,10.1016/j.apcata.2013.09.026,,2013
0.458,Mn,0.0485,Al,0.435,3.8712,Co-precipitation,500.0,4.0,250.0,50,3.0,9.39266,16.7758,,,,10.1016/j.apcata.2013.09.026,,2013
0.458,Mn,0.0485,Al,0.435,3.8712,Co-precipitation,500.0,4.0,270.0,50,3.0,9.39266,16.7758,,,,10.1016/j.apcata.2013.09.026,,2013
0.482,La,0.0471,Al,0.431,4.04305,Co-precipitation,500.0,4.0,230.0,50,3.0,9.39266,18.3294,,,,10.1016/j.apcata.2013.09.026,,2013
0.482,La,0.0471,Al,0.431,4.04305,Co-precipitation,500.0,4.0,250.0,50,3.0,9.39266,18.3294,,,,10.1016/j.apcata.2013.09.026,,2013
0.482,La,0.0471,Al,0.431,4.04305,Co-precipitation,500.0,4.0,270.0,50,3.0,9.39266,18.3294,,,,10.1016/j.apcata.2013.09.026,,2013
0.464,Ce,0.0488,Al,0.439,4.07754,Co-precipitation,500.0,4.0,230.0,50,3.0,9.39266,19.1857,,,,10.1016/j.apcata.2013.09.026,,2013
0.464,Ce,0.0488,Al,0.439,4.07754,Co-precipitation,500.0,4.0,250.0,50,3.0,9.39266,19.1857,,,,10.1016/j.apcata.2013.09.026,,2013
0.464,Ce,0.0488,Al,0.439,4.07754,Co-precipitation,500.0,4.0,270.0,50,3.0,9.39266,19.1857,,,,10.1016/j.apcata.2013.09.026,,2013
0.46,Y,0.0507,Al,0.439,4.67283,Co-precipitation,500.0,4.0,230.0,50,3.0,9.39266,17.1152,,,,10.1016/j.apcata.2013.09.026,,2013
0.46,Y,0.0507,Al,0.439,4.67283,Co-precipitation,500.0,4.0,250.0,50,3.0,9.39266,17.1152,,,,10.1016/j.apcata.2013.09.026,,2013
0.46,Y,0.0507,Al,0.439,4.67283,Co-precipitation,500.0,4.0,270.0,50,3.0,9.39266,17.1152,,,,10.1016/j.apcata.2013.09.026,,2013
0.0866,Null,,Zr,0.541,4.85203,Reverse co-precipitation,350.0,4.0,160.0,10,3.0,9.082507,58.0,,,,10.1016/j.cattod.2008.11.022,Basic evidences for methanol-synthesis catalyst design,2009
0.0866,Null,,Zr,0.541,4.85203,Reverse co-precipitation,350.0,4.0,180.0,10,3.0,9.082507,58.0,,,,10.1016/j.cattod.2008.11.022,,2009
0.0866,Null,,Zr,0.541,4.85203,Reverse co-precipitation,350.0,4.0,200.0,10,3.0,9.082507,58.0,,,,10.1016/j.cattod.2008.11.022,,2009
0.351,Null,,Zr,0.689,5.15906,Reverse co-precipitation,350.0,4.0,160.0,10,3.0,9.082507,69.0,,,,10.1016/j.cattod.2008.11.022,,2009
0.351,Null,,Zr,0.689,5.15906,Reverse co-precipitation,350.0,4.0,180.0,10,3.0,9.082507,69.0,,,,10.1016/j.cattod.2008.11.022,,2009
0.351,Null,,Zr,0.689,5.15906,Reverse co-precipitation,350.0,4.0,200.0,10,3.0,9.082507,69.0,,,,10.1016/j.cattod.2008.11.022,,2009
0.742,Null,,Zr,0.907,5.0689,Reverse co-precipitation,350.0,4.0,160.0,10,3.0,9.082507,66.0,,,,10.1016/j.cattod.2008.11.022,,2009
0.742,Null,,Zr,0.907,5.0689,Reverse co-precipitation,350.0,4.0,180.0,10,3.0,9.082507,66.0,,,,10.1016/j.cattod.2008.11.022,,2009
0.742,Null,,Zr,0.907,5.0689,Reverse co-precipitation,350.0,4.0,200.0,10,3.0,9.082507,66.0,,,,10.1016/j.cattod.2008.11.022,,2009
2.706,Null,,Zr,1.843,4.99043,Reverse co-precipitation,350.0,4.0,160.0,10,3.0,9.082507,78.0,,,,10.1016/j.cattod.2008.11.022,,2009
2.706,Null,,Zr,1.843,4.99043,Reverse co-precipitation,350.0,4.0,180.0,10,3.0,9.082507,78.0,,,,10.1016/j.cattod.2008.11.022,,2009
2.706,Null,,Zr,1.843,4.99043,Reverse co-precipitation,350.0,4.0,200.0,10,3.0,9.082507,78.0,,,,10.1016/j.cattod.2008.11.022,,2009
0.428571,Null,,Null,,6.37843,Co-precipitation,550.0,7.0,250.0,50,3.0,8.69951,14.0881,,,,10.1016/j.catcom.2016.06.010,Core-shell structured Cu@m-SiO<sub>2</sub> and Cu/ZnO@m-SiO<sub>2</sub> catalysts for methanol synthesis from CO<sub>2</sub> hydrogenation,2016
0.428571,Null,,Null,,6.37843,Co-precipitation,550.0,7.0,260.0,50,3.0,8.69951,14.0881,,,,10.1016/j.catcom.2016.06.010,,2016
0.428571,Null,,Null,,6.37843,Co-precipitation,550.0,7.0,270.0,50,3.0,8.69951,14.0881,,,,10.1016/j.catcom.2016.06.010,,2016
0.492119,Null,0.0,Zr,0.259194,5.0626,Co-precipitation,350.0,4.0,180.0,30,3.0,9.21034,34.2363,,,,10.1016/j.apcatb.2014.01.035,The changing nature of the active site of Cu-Zn-Zr catalysts for the CO<sub>2</sub> hydrogenation reaction to methanol,2014
0.492119,Null,0.0,Zr,0.259194,5.0626,Co-precipitation,350.0,4.0,200.0,30,3.0,9.21034,34.2363,,,,10.1016/j.apcatb.2014.01.035,,2014
0.492119,Null,,Zr,0.259194,5.0626,Co-precipitation,350.0,4.0,220.0,30,3.0,9.21034,34.2363,,,,10.1016/j.apcatb.2014.01.035,,2014
0.492119,Null,,Zr,0.259194,5.0626,Co-precipitation,350.0,4.0,240.0,30,3.0,9.21034,34.2363,,,,10.1016/j.apcatb.2014.01.035,,2014
0.491135,Null,,Zr,0.281915,4.8828,Co-precipitation,350.0,4.0,180.0,30,3.0,9.21034,40.6287,,,,10.1016/j.apcatb.2014.01.035,,2014
0.491135,Null,,Zr,0.281915,4.8828,Co-precipitation,350.0,4.0,200.0,30,3.0,9.21034,40.6287,,,,10.1016/j.apcatb.2014.01.035,,2014
0.491135,Null,,Zr,0.281915,4.8828,Co-precipitation,350.0,4.0,220.0,30,3.0,9.21034,40.6287,,,,10.1016/j.apcatb.2014.01.035,,2014
0.491135,Null,,Zr,0.281915,4.8828,Co-precipitation,350.0,4.0,240.0,30,3.0,9.21034,40.6287,,,,10.1016/j.apcatb.2014.01.035,,2014
0.487676,Null,,Zr,0.272887,5.0876,Co-precipitation,350.0,4.0,180.0,30,3.0,9.21034,36.4362,,,,10.1016/j.apcatb.2014.01.035,,2014
0.487676,Null,,Zr,0.272887,5.0876,Co-precipitation,350.0,4.0,200.0,30,3.0,9.21034,36.4362,,,,10.1016/j.apcatb.2014.01.035,,2014
0.487676,Null,,Zr,0.272887,5.0876,Co-precipitation,350.0,4.0,220.0,30,3.0,9.21034,36.4362,,,,10.1016/j.apcatb.2014.01.035,,2014
0.487676,Null,,Zr,0.272887,5.0876,Co-precipitation,350.0,4.0,240.0,30,3.0,9.21034,36.4362,,,,10.1016/j.apcatb.2014.01.035,,2014
0.557078,Null,,Al,0.118721,3.6763,Co-precipitation,400.0,4.0,160.0,40,3.0,10.0774,43.2605,,,,10.1006/jcat.2002.3676,Reverse topotactic transformation of a Cu-Zn-Al catalyst during wet Pd impregnation:: Relevance for the performance in methanol synthesis from CO<sub>2</sub>/H<sub>2</sub> mixtures,2002
0.557078,Null,,Al,0.118721,3.6763,Co-precipitation,400.0,4.0,170.0,40,3.0,10.0774,43.2605,,,,10.1006/jcat.2002.3676,,2002
0.557078,Null,,Al,0.118721,3.6763,Co-precipitation,400.0,4.0,180.0,40,3.0,10.0774,43.2605,,,,10.1006/jcat.2002.3676,,2002
0.557078,Null,,Al,0.118721,3.6763,Co-precipitation,400.0,4.0,190.0,40,3.0,10.0774,43.2605,,,,10.1006/jcat.2002.3676,,2002
0.557078,Null,,Al,0.118721,3.6763,Co-precipitation,400.0,4.0,200.0,40,3.0,10.0774,43.2605,,,,10.1006/jcat.2002.3676,,2002
0.552133,Pd,0.0876777,Al,0.113744,3.45947,Co-precipitation,400.0,4.0,160.0,40,3.0,10.0774,42.2847,,,,10.1006/jcat.2002.3676,,2002
0.552133,Pd,0.0876777,Al,0.113744,3.45947,Co-precipitation,400.0,4.0,170.0,40,3.0,10.0774,42.2847,,,,10.1006/jcat.2002.3676,,2002
0.552133,Pd,0.0876777,Al,0.113744,3.45947,Co-precipitation,400.0,4.0,180.0,40,3.0,10.0774,42.2847,,,,10.1006/jcat.2002.3676,,2002
0.552133,Pd,0.0876777,Al,0.113744,3.45947,Co-precipitation,400.0,4.0,190.0,40,3.0,10.0774,42.2847,,,,10.1006/jcat.2002.3676,,2002
0.552133,Pd,0.0876777,Al,0.113744,3.45947,Co-precipitation,400.0,4.0,200.0,40,3.0,10.0774,42.2847,,,,10.1006/jcat.2002.3676,,2002
0.54,Pd,0.23,Al,0.1,3.40453,Co-precipitation,400.0,4.0,160.0,40,3.0,10.0774,40.4457,,,,10.1006/jcat.2002.3676,,2002
0.54,Pd,0.23,Al,0.1,3.40453,Co-precipitation,400.0,4.0,170.0,40,3.0,10.0774,40.4457,,,,10.1006/jcat.2002.3676,,2002
0.54,Pd,0.23,Al,0.1,3.40453,Co-precipitation,400.0,4.0,180.0,40,3.0,10.0774,40.4457,,,,10.1006/jcat.2002.3676,,2002
0.54,Pd,0.23,Al,0.1,3.40453,Co-precipitation,400.0,4.0,190.0,40,3.0,10.0774,40.4457,,,,10.1006/jcat.2002.3676,,2002
0.54,Pd,0.23,Al,0.1,3.40453,Co-precipitation,400.0,4.0,200.0,40,3.0,10.0774,40.4457,,,,10.1006/jcat.2002.3676,,2002
2.28086,Null,,Null,,,Co-precipitation,,,180.0,60,3.0,9.60238,40.5119,,,,10.1023/A:1015316610657,Effect of Pd on Cu-Zn catalysts for the hydrogenation of CO<sub>2</sub> to methanol:: stabilization of Cu metal against CO<sub>2</sub> oxidation,2002
2.28086,Null,,Null,,,Co-precipitation,,,200.0,60,3.0,9.60238,40.5119,,,,10.1023/A:1015316610657,,2002
2.28086,Null,,Null,,,Co-precipitation,,,220.0,60,3.0,9.60238,40.5119,,,,10.1023/A:1015316610657,,2002
2.28086,Null,,Null,,,Co-precipitation,,,240.0,60,3.0,9.60238,40.5119,,,,10.1023/A:1015316610657,,2002
2.44378,Pd,0.0254576,Null,,, Sequential-precipitation,350.0,,180.0,60,3.0,9.60238,42.1868,,,,10.1023/A:1015316610657,,2002
2.44378,Pd,0.0254576,Null,,, Sequential-precipitation,350.0,,200.0,60,3.0,9.60238,42.1868,,,,10.1023/A:1015316610657,,2002
2.44378,Pd,0.0254576,Null,,, Sequential-precipitation,350.0,,220.0,60,3.0,9.60238,42.1868,,,,10.1023/A:1015316610657,,2002
2.44378,Pd,0.0254576,Null,,, Sequential-precipitation,350.0,,240.0,60,3.0,9.60238,42.1868,,,,10.1023/A:1015316610657,,2002
2.28044,Null,,Null,,2.99773,Co-precipitation,350.0,,180.0,60,3.0,9.60238,40.052,,,,10.1006/jcat.2002.3677,Pd-modified Cu-Zn catalysts for methanol synthesis from CO<sub>2</sub>/H<sub>2</sub> mixtures:: Catalytic structures and performance,2002
2.28044,Null,,Null,,2.99773,Co-precipitation,350.0,,200.0,60,3.0,9.60238,40.052,,,,10.1006/jcat.2002.3677,,2002
2.28044,Null,,Null,,2.99773,Co-precipitation,350.0,,220.0,60,3.0,9.60238,40.052,,,,10.1006/jcat.2002.3677,,2002
2.28044,Null,,Null,,2.99773,Co-precipitation,350.0,,240.0,60,3.0,9.60238,40.052,,,,10.1006/jcat.2002.3677,,2002
2.44333,Pd,0.0464126,Null,,3.20275,Sequential-precipitation,350.0,,180.0,60,3.0,9.60238,41.2821,,,,10.1006/jcat.2002.3677,,2002
2.44333,Pd,0.0464126,Null,,3.20275,Sequential-precipitation,350.0,,200.0,60,3.0,9.60238,41.2821,,,,10.1006/jcat.2002.3677,,2002
2.44333,Pd,0.0464126,Null,,3.20275,Sequential-precipitation,350.0,,220.0,60,3.0,9.60238,41.2821,,,,10.1006/jcat.2002.3677,,2002
2.44333,Pd,0.0464126,Null,,3.20275,Sequential-precipitation,350.0,,240.0,60,3.0,9.60238,41.2821,,,,10.1006/jcat.2002.3677,,2002
23.456,Null,,Null,,3.4012,Co-precipitation,350.0,4.0,160.0,7,9.0,7.78322,34.4974,,,,10.1016/j.cattod.2012.07.029,,2012
23.456,Null,,Null,,3.4012,Co-precipitation,350.0,4.0,180.0,7,9.0,7.78322,34.4974,,,,10.1016/j.cattod.2012.07.029,,2012
23.456,Null,,Null,,3.4012,Co-precipitation,350.0,4.0,200.0,7,9.0,7.78322,34.4974,,,,10.1016/j.cattod.2012.07.029,,2012
23.456,Null,,Null,,3.4012,Co-precipitation,350.0,4.0,225.0,7,9.0,7.78322,34.4974,,,,10.1016/j.cattod.2012.07.029,,2012
11.2393,Null,,Null,,3.3673,Co-precipitation,350.0,4.0,160.0,7,9.0,7.78322,35.0599,,,,10.1016/j.cattod.2012.07.029,,2012
11.2393,Null,,Null,,3.3673,Co-precipitation,350.0,4.0,180.0,7,9.0,7.78322,35.0599,,,,10.1016/j.cattod.2012.07.029,,2012
11.2393,Null,,Null,,3.3673,Co-precipitation,350.0,4.0,200.0,7,9.0,7.78322,35.0599,,,,10.1016/j.cattod.2012.07.029,,2012
11.2393,Null,,Null,,3.3673,Co-precipitation,350.0,4.0,225.0,7,9.0,7.78322,35.0599,,,,10.1016/j.cattod.2012.07.029,,2012
2.93199,Null,,Null,,3.3322,Co-precipitation,350.0,4.0,140.0,7,9.0,7.78322,31.5287,,,,10.1016/j.cattod.2012.07.029,,2012
2.93199,Null,,Null,,3.3322,Co-precipitation,350.0,4.0,160.0,7,9.0,7.78322,31.5287,,,,10.1016/j.cattod.2012.07.029,,2012
2.93199,Null,,Null,,3.3322,Co-precipitation,350.0,4.0,180.0,7,9.0,7.78322,31.5287,,,,10.1016/j.cattod.2012.07.029,,2012
2.93199,Null,,Null,,3.3322,Co-precipitation,350.0,4.0,200.0,7,9.0,7.78322,31.5287,,,,10.1016/j.cattod.2012.07.029,,2012
2.93199,Null,,Null,,2.89037,Co-precipitation,400.0,4.0,140.0,7,9.0,7.78322,40.3952,,,,10.1016/j.cattod.2012.07.029,,2012
2.93199,Null,,Null,,2.89037,Co-precipitation,400.0,4.0,160.0,7,9.0,7.78322,40.3952,,,,10.1016/j.cattod.2012.07.029,,2012
2.93199,Null,,Null,,2.89037,Co-precipitation,400.0,4.0,180.0,7,9.0,7.78322,40.3952,,,,10.1016/j.cattod.2012.07.029,,2012
2.93199,Null,,Null,,2.89037,Co-precipitation,400.0,4.0,200.0,7,9.0,7.78322,40.3952,,,,10.1016/j.cattod.2012.07.029,,2012
2.93199,Null,,Null,,2.63906,Co-precipitation,450.0,4.0,140.0,7,9.0,7.78322,43.8031,,,,10.1016/j.cattod.2012.07.029,,2012
2.93199,Null,,Null,,2.63906,Co-precipitation,450.0,4.0,160.0,7,9.0,7.78322,43.8031,,,,10.1016/j.cattod.2012.07.029,,2012
2.93199,Null,,Null,,2.63906,Co-precipitation,450.0,4.0,180.0,7,9.0,7.78322,43.8031,,,,10.1016/j.cattod.2012.07.029,,2012
2.93199,Null,,Null,,2.63906,Co-precipitation,450.0,4.0,200.0,7,9.0,7.78322,43.8031,,,,10.1016/j.cattod.2012.07.029,,2012
2.93199,Null,,Null,,2.63906,Co-precipitation,450.0,4.0,225.0,7,9.0,7.78322,43.8031,,,,10.1016/j.cattod.2012.07.029,,2012
2.93199,Null,,Null,,2.30259,Co-precipitation,500.0,4.0,140.0,7,9.0,7.78322,38.3331,,,,10.1016/j.cattod.2012.07.029,,2012
2.93199,Null,,Null,,2.30259,Co-precipitation,500.0,4.0,160.0,7,9.0,7.78322,38.3331,,,,10.1016/j.cattod.2012.07.029,,2012
2.93199,Null,,Null,,2.30259,Co-precipitation,500.0,4.0,180.0,7,9.0,7.78322,38.3331,,,,10.1016/j.cattod.2012.07.029,,2012
2.93199,Null,,Null,,2.30259,Co-precipitation,500.0,4.0,200.0,7,9.0,7.78322,38.3331,,,,10.1016/j.cattod.2012.07.029,,2012
2.93199,Null,,Null,,2.30259,Co-precipitation,500.0,4.0,225.0,7,9.0,7.78322,38.3331,,,,10.1016/j.cattod.2012.07.029,,2012